Volume conc (microl/l) 1,Volume conc (microl/l) 2,Volume conc (microl/l) 3,Volume conc (microl/l) 4,Volume conc (microl/l) 5,Volume conc (microl/l) 6,Volume conc (microl/l) 7,Volume conc (microl/l) 8,Volume conc (microl/l) 9,Volume conc (microl/l) 10,Volume conc (microl/l) 11,Volume conc (microl/l) 12,Volume conc (microl/l) 13,Volume conc (microl/l) 14,Volume conc (microl/l) 15,Volume conc (microl/l) 16,Volume conc (microl/l) 17,Volume conc (microl/l) 18,Volume conc (microl/l) 19,Volume conc (microl/l) 20,Volume conc (microl/l) 21,Volume conc (microl/l) 22,Volume conc (microl/l) 23,Volume conc (microl/l) 24,Volume conc (microl/l) 25,Volume conc (microl/l) 26,Volume conc (microl/l) 27,Volume conc (microl/l) 28,Volume conc (microl/l) 29,Volume conc (microl/l) 30,Volume conc (microl/l) 31,Volume conc (microl/l) 32,Volume conc (microl/l) 33,Volume conc (microl/l) 34,Volume conc (microl/l) 35,Volume conc (microl/l) 36,TVC_recal,Laser transmission Sensor [mW],Supply voltage in calibrated units [V],External Auxiliary input 1 in calibrated units [mW],Laser Reference sensor in calibrated units [mW],Depth in calibrated units [m],Temperature in calibrated units [C],year,Month,day,hour,minute,second,DATE,TIME,DATE  & Time (format gps),External Auxiliary input 2 in calibrated units [mW],Sauter Mean Diameter [?],Total Volume Concentration [ppm],Relative Humidity [%],Accelerometer X [counts],Accelerometer Y [counts],Accelerometer Z [counts],Raw pressure (most sign bit),Raw pressure (least sign 16 bits),Ambient light (counts),Not used,Computed optical transmission over path,Beam-attenuation (c) [m-1].,Current Time,Latitude_ship,Longitude_ship,Speed Over Ground,GPSfix,Row Labels,Average of Salinity,Average of Temperature_C,Average of Turbidity_NTU,Average of Depth_m,Average of Chlorohyll_ug_L,Time,VPR lat,VPR long,VPR depth,majoraxis,minoraxis,angle,devz,linename
0,0,0,0,0,0,0,0.0012,0.0063,0.0335,0.103,0.1871,0.2769,0.3714,0.343,0.2847,0.2102,0.1889,0.1631,0.1873,0.2139,0.2872,0.4427,0.6914,0.8746,1.0249,1.1372,1.2605,1.4837,1.926,2.6657,3.7314,4.7405,4.806,3.1793,1.2082,14.3644,1.1333,11.54,0.07,0.9939,5.18,-5,2021,5,28,11,2,56,5/28/2021,11:02:56 AM,5/28/2021 11:02:56,6.554,169.38,32.0298,46,2503,2718,3279,0,24014,89,0,0.957,1.747,11:02:56 AM,51.27532565,2.6067055,1.6,RTK       ,,,,,,,2021-05-28 11:02:56+00:00,51.275414,2.606689,-3.13,0.08,0.08,269.97,,0002_20210528_105946
0,0,0,0,0,0,0,0,0.0037,0.0237,0.0872,0.1749,0.2753,0.384,0.3573,0.3001,0.223,0.2002,0.1718,0.1964,0.2227,0.2955,0.449,0.7041,0.9113,1.1001,1.2564,1.4297,1.7242,2.3115,3.3985,5.3619,7.9974,9.2287,6.1505,2.0614,16.2006,1.1279,11.54,0.075,0.9945,5.23,-5,2021,5,28,11,2,57,5/28/2021,11:02:57 AM,5/28/2021 11:02:57,6.554,200.03,47.0004,46,2512,2737,3297,0,24022,82,0,0.952,1.964,11:02:57 AM,51.27532903,2.60671467,1.3,RTK       ,,,,,,,2021-05-28 11:02:57+00:00,,,,,,,,0002_20210528_105946
0,0,0,0,0,0,0,0.0014,0.0068,0.0327,0.0969,0.1765,0.261,0.3469,0.3226,0.2714,0.2048,0.1839,0.1582,0.1764,0.1953,0.2586,0.3957,0.6139,0.7667,0.8782,0.9631,1.0682,1.2833,1.7704,2.7609,4.5641,6.786,7.4606,4.6701,1.6091,13.1938,1.1333,11.55,0.075,0.9939,5.33,-5,2021,5,28,11,2,58,5/28/2021,11:02:58 AM,5/28/2021 11:02:58,6.554,195.05,38.2839,46,2512,2735,3313,0,24037,83,0,0.957,1.747,11:02:58 AM,51.27533185,2.60672267,1.2,RTK       ,,,,,,,2021-05-28 11:02:58+00:00,,,,,,,,0002_20210528_105946
0,0,0,0,0,0,0,0,0.0046,0.0276,0.0934,0.1769,0.2668,0.3633,0.3384,0.2852,0.212,0.1895,0.161,0.1809,0.202,0.266,0.4071,0.6629,0.9078,1.1712,1.4043,1.5873,1.7787,2.1176,2.7242,3.7034,4.7604,4.9454,3.2754,1.1947,15.5287,1.1327,11.55,0.075,0.9939,5.33,-5,2021,5,28,11,2,59,5/28/2021,11:02:59 AM,5/28/2021 11:02:59,6.554,169.36,33.408,46,2512,2726,3317,0,24038,89,0,0.957,1.771,11:02:59 AM,51.27533512,2.60673083,1.4,RTK       ,,,,,,,2021-05-28 11:02:59+00:00,,,,,,,,0002_20210528_105946
0,0,0,0,0,0,0,0,0.0052,0.0296,0.0983,0.1838,0.278,0.3795,0.3535,0.2954,0.2173,0.1938,0.166,0.1919,0.2204,0.3054,0.4938,0.8332,1.1489,1.4636,1.7222,1.9049,2.0661,2.3338,2.8282,3.5923,4.2754,4.0869,2.5889,1.0192,17.7128,1.1313,11.55,0.075,0.9933,5.25,-5,2021,5,28,11,3,0,5/28/2021,11:03:00 AM,5/28/2021 11:03:00,6.554,155.46,33.2755,46,2501,2716,3294,0,24025,98,0,0.956,1.796,11:03:00 AM,51.27533982,2.6067395,1.7,RTK       ,,,,,,,2021-05-28 11:03:00+00:00,51.27542867,2.606727667,-4.08,0.07,0.07,269.93,,0002_20210528_105946
0,0,0,0,0,0,0,0,0.003,0.0213,0.0829,0.1688,0.2661,0.3712,0.3423,0.2865,0.2103,0.1882,0.1591,0.181,0.2044,0.2778,0.4437,0.758,1.0699,1.4197,1.7544,2.0389,2.3118,2.7182,3.3711,4.2818,4.9225,4.2865,2.2769,0.7094,18.6486,1.1299,11.55,0.075,0.9933,5.2,-5,2021,5,28,11,3,1,5/28/2021,11:03:01 AM,5/28/2021 11:03:01,6.554,159.02,35.1259,46,2505,2727,3290,0,24017,87,0,0.955,1.844,11:03:01 AM,51.2753455,2.606747,1.5,RTK       ,,,,,,,2021-05-28 11:03:01+00:00,51.275407,2.6067605,-3.86,0.07,0.07,269.96,,0002_20210528_105946
0,0,0,0,0,0,0,0,0.0048,0.0281,0.0949,0.18,0.2754,0.3784,0.3513,0.2903,0.2105,0.1843,0.1544,0.1728,0.1919,0.2515,0.3815,0.614,0.8375,1.0902,1.3608,1.6822,2.1296,2.7986,3.6738,4.5992,4.9806,4.2892,2.5031,0.8945,17.3368,1.132,11.56,0.075,0.9933,5.29,-5,2021,5,28,11,3,2,5/28/2021,11:03:02 AM,5/28/2021 11:03:02,6.554,165.65,34.6033,46,2503,2725,3294,0,24031,88,0,0.957,1.772,11:03:02 AM,51.275351,2.606752,1.2,RTK       ,,,,,,,2021-05-28 11:03:02+00:00,,,,,,,,0002_20210528_105946
0,0,0,0,0,0,0,0.0014,0.0071,0.0356,0.1011,0.1774,0.2576,0.347,0.3299,0.2808,0.2087,0.1856,0.1561,0.1757,0.1963,0.2675,0.4303,0.7152,0.9468,1.123,1.22,1.2899,1.4266,1.7644,2.4558,3.748,5.5239,6.5848,4.9619,2.1348,14.0998,1.134,11.55,0.075,0.9945,5.36,-5,2021,5,28,11,3,3,5/28/2021,11:03:03 AM,5/28/2021 11:03:03,6.554,188.25,37.053,46,2506,2720,3316,0,24043,83,0,0.957,1.747,11:03:03 AM,51.27535612,2.60675667,1.3,RTK       ,,,,,,,2021-05-28 11:03:03+00:00,,,,,,,,0002_20210528_105946
0,0,0,0,0,0,0,0,0.0046,0.0284,0.0986,0.1854,0.2781,0.3762,0.3465,0.2917,0.2175,0.1986,0.1738,0.2047,0.2393,0.3322,0.5342,0.8897,1.2037,1.5275,1.8658,2.2652,2.7643,3.3555,3.9147,4.2262,3.9781,3.0264,1.6625,0.5671,21.2962,1.1313,11.56,0.075,0.9939,5.36,-5,2021,5,28,11,3,4,5/28/2021,11:03:04 AM,5/28/2021 11:03:04,6.554,146.11,34.7567,46,2513,2715,3312,0,24043,88,0,0.956,1.819,11:03:04 AM,51.27536147,2.60676367,1.6,RTK       ,,,,,,,2021-05-28 11:03:04+00:00,,,,,,,,0002_20210528_105946
0,0,0,0,0,0,0,0.0012,0.0061,0.0308,0.0942,0.1748,0.2615,0.35,0.3243,0.273,0.2074,0.1904,0.1693,0.1958,0.2249,0.2969,0.4374,0.6546,0.8198,1.0004,1.2343,1.5694,2.0206,2.5703,3.1337,3.5135,3.3105,2.4166,1.256,0.4375,16.2411,1.1361,11.55,0.075,0.9939,5.26,-5,2021,5,28,11,3,5,5/28/2021,11:03:05 AM,5/28/2021 11:03:05,6.554,143.71,27.1753,46,2496,2718,3283,0,24027,81,0,0.96,1.651,11:03:05 AM,51.27536622,2.6067735,1.6,RTK       ,,,,,,,2021-05-28 11:03:05+00:00,51.27543983,2.606788667,-3.93,0.06,0.06,269.94,,0002_20210528_105946
0,0,0,0,0,0,0,0,0.0018,0.0171,0.0805,0.1702,0.2702,0.38,0.3503,0.3024,0.2305,0.2153,0.1872,0.2182,0.2524,0.3359,0.5178,0.8431,1.1157,1.3797,1.6036,1.8312,2.1824,2.7601,3.6293,4.7514,5.7008,5.331,2.965,0.7824,18.8749,1.1333,11.56,0.075,0.9933,5.2,-5,2021,5,28,11,3,6,5/28/2021,11:03:06 AM,5/28/2021 11:03:06,6.554,165.78,38.4053,46,2504,2726,3300,0,24017,82,0,0.958,1.723,11:03:06 AM,51.27536908,2.60678317,1.3,RTK       ,,,,,,,2021-05-28 11:03:06+00:00,51.27545667,2.606771667,-4.89,0.06,0.06,269.77,,0002_20210528_105946
0,0,0,0,0,0,0,0,0.0033,0.0226,0.0842,0.1681,0.2638,0.3728,0.3519,0.2934,0.2098,0.1792,0.1439,0.1581,0.1722,0.2224,0.3346,0.5369,0.7299,0.9718,1.2817,1.6983,2.2563,3.0149,4.0131,5.1879,5.8676,4.9681,2.5684,0.7666,17.4832,1.1347,11.56,0.075,0.9939,5.34,-5,2021,5,28,11,3,7,5/28/2021,11:03:07 AM,5/28/2021 11:03:07,6.554,173.13,36.842,45,2518,2729,3320,0,24040,88,0,0.958,1.699,11:03:07 AM,51.27537127,2.60679183,1.3,RTK       ,,,,,,,2021-05-28 11:03:07+00:00,,,,,,,,0002_20210528_105946
0,0,0,0,0,0,0,0,0.0036,0.0245,0.091,0.1782,0.2762,0.3866,0.3676,0.3195,0.242,0.2186,0.1845,0.2059,0.2279,0.2977,0.4536,0.7533,1.072,1.4675,1.8822,2.2331,2.5178,2.8934,3.5548,4.712,6.1593,7.0771,5.4849,2.0427,19.8515,1.1245,11.56,0.075,0.9939,5.37,-5,2021,5,28,11,3,8,5/28/2021,11:03:08 AM,5/28/2021 11:03:08,6.554,182.54,45.3275,45,2509,2722,3312,0,24044,93,0,0.95,2.062,11:03:08 AM,51.27537493,2.6068005,1.5,RTK       ,,,,,,,2021-05-28 11:03:08+00:00,,,,,,,,0002_20210528_105946
0,0,0,0,0,0,0,0.0024,0.0107,0.0464,0.1223,0.2027,0.2813,0.3626,0.3446,0.3054,0.2446,0.2312,0.2094,0.2395,0.2719,0.3572,0.5374,0.8707,1.2313,1.679,2.1425,2.512,2.7026,2.7543,2.7727,2.9064,3.1478,3.1769,2.4342,1.1986,20.4347,1.1333,11.56,0.075,0.9945,5.25,-5,2021,5,28,11,3,9,5/28/2021,11:03:09 AM,5/28/2021 11:03:09,6.554,143.01,33.2987,46,2499,2723,3290,0,24025,89,0,0.957,1.771,11:03:09 AM,51.27538075,2.6068085,1.7,RTK       ,,,,,,,2021-05-28 11:03:09+00:00,,,,,,,,0002_20210528_105946
0,0,0,0,0,0,0,0,0.0046,0.0266,0.0931,0.1782,0.2703,0.3644,0.3396,0.2922,0.2242,0.205,0.1807,0.2074,0.236,0.3094,0.4596,0.7176,0.9548,1.2078,1.4377,1.6317,1.8645,2.3052,3.2117,4.9508,7.5342,9.2202,6.9941,2.7004,16.7223,1.1286,11.57,0.075,0.9933,5.15,-5,2021,5,28,11,3,10,5/28/2021,11:03:10 AM,5/28/2021 11:03:10,6.554,201.73,48.1218,46,2500,2722,3284,0,24010,86,0,0.954,1.893,11:03:10 AM,51.27538725,2.60681517,1.5,RTK       ,,,,,,,2021-05-28 11:03:10+00:00,51.275478,2.606800833,-3.51,0.07,0.07,270,,0002_20210528_105946
0,0,0,0,0,0,0,0,0.0047,0.0268,0.091,0.1734,0.2626,0.3511,0.317,0.2594,0.191,0.1727,0.153,0.1802,0.2109,0.2854,0.4355,0.6688,0.8364,0.9783,1.1174,1.3267,1.7207,2.4622,3.6514,5.0163,5.4701,4.2743,2.1466,0.6875,15.8766,1.1361,11.56,0.075,0.9933,5.23,-5,2021,5,28,11,3,11,5/28/2021,11:03:11 AM,5/28/2021 11:03:11,6.554,167.72,33.4717,46,2507,2720,3299,0,24022,84,0,0.96,1.627,11:03:11 AM,51.27539227,2.6068205,1.2,RTK       ,,,,,,,2021-05-28 11:03:11+00:00,51.275481,2.606811,-4.74,0.07,0.07,269.82,,0002_20210528_105946
0,0,0,0,0,0,0,0,0.0051,0.029,0.0958,0.1793,0.2679,0.3546,0.3176,0.2556,0.1831,0.161,0.1381,0.1603,0.1848,0.2536,0.4018,0.659,0.8906,1.1307,1.3662,1.6119,1.9104,2.3494,3.0057,3.9606,4.9082,4.8529,3.0255,1.1112,15.9115,1.1368,11.56,0.075,0.9957,5.37,-5,2021,5,28,11,3,12,5/28/2021,11:03:12 AM,5/28/2021 11:03:12,6.554,170.57,33.7698,46,2509,2711,3319,0,24044,76,0,0.958,1.697,11:03:12 AM,51.27539595,2.60682617,1.1,RTK       ,,,,,,,2021-05-28 11:03:12+00:00,,,,,,,,0002_20210528_105946
0,0,0,0,0,0,0,0,0.0038,0.0243,0.0874,0.1721,0.2693,0.3784,0.3561,0.3005,0.2216,0.1987,0.1705,0.1977,0.2277,0.3111,0.491,0.7993,1.0568,1.3027,1.5417,1.8378,2.2832,2.9526,3.7259,4.2439,3.9598,2.8263,1.3337,0.3638,18.9102,1.1374,11.57,0.075,0.9927,5.39,-5,2021,5,28,11,3,13,5/28/2021,11:03:13 AM,5/28/2021 11:03:13,6.554,145.58,31.6379,46,2508,2711,3315,0,24047,83,0,0.962,1.555,11:03:13 AM,51.27539983,2.60683417,1.6,RTK       ,,,,,,,2021-05-28 11:03:13+00:00,,,,,,,,0002_20210528_105946
0,0,0,0,0,0,0,0.0023,0.0098,0.0418,0.1116,0.1914,0.2764,0.3629,0.3396,0.2877,0.2199,0.2026,0.1821,0.2115,0.2442,0.3328,0.5182,0.8143,1.0284,1.1683,1.237,1.2959,1.4267,1.726,2.2702,3.0875,3.8536,3.8087,2.5311,1.0615,14.5016,1.1354,11.56,0.075,0.9933,5.29,-5,2021,5,28,11,3,14,5/28/2021,11:03:14 AM,5/28/2021 11:03:14,6.554,153.95,28.8441,46,2508,2719,3304,0,24031,91,0,0.96,1.651,11:03:14 AM,51.27540478,2.606844,1.7,RTK       ,,,,,,,2021-05-28 11:03:14+00:00,,,,,,,,0002_20210528_105946
0,0,0,0,0,0,0,0,0.0025,0.0199,0.0815,0.1667,0.2653,0.3793,0.3528,0.2935,0.2099,0.1859,0.1533,0.1759,0.2005,0.2773,0.4519,0.7553,0.9802,1.1742,1.3537,1.5773,1.8994,2.3482,2.9032,3.4575,3.616,2.902,1.4643,0.4107,16.2077,1.1361,11.57,0.075,0.9933,5.15,-5,2021,5,28,11,3,15,5/28/2021,11:03:15 AM,5/28/2021 11:03:15,6.554,145.35,28.0581,46,2505,2727,3290,0,24009,90,0,0.96,1.627,11:03:15 AM,51.27540913,2.60685433,1.6,RTK       ,,,,,,,2021-05-28 11:03:15+00:00,51.27549867,2.606840667,-4.28,0.06,0.06,269.89,,0002_20210528_105946
0,0,0,0,0,0,0,0,0.0039,0.0252,0.0909,0.1783,0.2764,0.3858,0.366,0.3136,0.2355,0.2127,0.1817,0.2065,0.2333,0.3066,0.4583,0.7113,0.919,1.1451,1.393,1.6752,2.0257,2.4576,2.9041,3.1684,2.9764,2.2921,1.2596,0.4028,16.7057,1.1354,11.57,0.075,0.9921,5.13,-5,2021,5,28,11,3,16,5/28/2021,11:03:16 AM,5/28/2021 11:03:16,6.554,136.75,26.8048,45,2506,2723,3296,0,24007,95,0,0.961,1.604,11:03:16 AM,51.27541223,2.60686367,1.3,RTK       ,,,,,,,2021-05-28 11:03:16+00:00,51.27550483,2.606845833,-4.27,0.06,0.06,269.89,,0002_20210528_105946
0,0,0,0,0,0,0,0,0.0045,0.0275,0.0938,0.1778,0.2674,0.3596,0.3246,0.2636,0.1891,0.1674,0.1421,0.1657,0.192,0.2718,0.4542,0.7754,1.0334,1.2272,1.3389,1.4324,1.5996,1.9712,2.653,3.7454,4.7952,4.7005,2.8271,0.9969,15.1322,1.1361,11.57,0.075,0.9933,5.26,-5,2021,5,28,11,3,17,5/28/2021,11:03:17 AM,5/28/2021 11:03:17,6.554,166.1,32.1972,45,2517,2725,3313,0,24027,89,0,0.96,1.627,11:03:17 AM,51.27541528,2.60687167,1.3,RTK       ,,,,,,,2021-05-28 11:03:17+00:00,,,,,,,,0002_20210528_105946
0,0,0,0,0,0,0,0,0.0031,0.0226,0.0867,0.1728,0.27,0.3736,0.337,0.2696,0.1867,0.1603,0.1307,0.1501,0.1713,0.2458,0.4263,0.7662,1.0499,1.244,1.3061,1.3086,1.3777,1.6635,2.3276,3.5243,4.8287,4.7778,2.5258,0.6943,14.0502,1.1381,11.57,0.075,0.9939,5.29,-5,2021,5,28,11,3,18,5/28/2021,11:03:18 AM,5/28/2021 11:03:18,6.554,163.99,30.4013,46,2511,2725,3310,0,24032,90,0,0.961,1.579,11:03:18 AM,51.27542027,2.6068785,1.6,RTK       ,,,,,,,2021-05-28 11:03:18+00:00,,,,,,,,0002_20210528_105946
0,0,0,0,0,0,0,0,0.004,0.0249,0.0853,0.1658,0.2584,0.3622,0.3389,0.2802,0.2033,0.182,0.1556,0.181,0.2095,0.2892,0.4614,0.7369,0.9149,1.0222,1.058,1.081,1.173,1.3991,1.7632,2.1931,2.4006,2.0148,1.0684,0.3304,12.35,1.1409,11.57,0.075,0.9933,5.22,-5,2021,5,28,11,3,19,5/28/2021,11:03:19 AM,5/28/2021 11:03:19,6.554,128.41,20.3575,46,2491,2717,3297,0,24021,106,0,0.964,1.459,11:03:19 AM,51.27542615,2.60688483,1.5,RTK       ,,,,,,,2021-05-28 11:03:19+00:00,,,,,,,,0002_20210528_105946
0,0,0,0,0,0,0,0.0012,0.007,0.0386,0.109,0.1863,0.2661,0.3601,0.343,0.2904,0.2137,0.1908,0.1579,0.1758,0.1949,0.2578,0.4016,0.6459,0.8269,0.9796,1.0904,1.1761,1.27,1.4065,1.5687,1.722,1.7279,1.4296,0.8159,0.2722,12.1583,1.1402,11.57,0.075,0.9933,5.19,-5,2021,5,28,11,3,20,5/28/2021,11:03:20 AM,5/28/2021 11:03:20,6.554,116.53,18.1259,46,2493,2716,3295,0,24015,113,0,0.964,1.483,11:03:20 AM,51.27543137,2.6068915,1.4,RTK       ,,,,,,,2021-05-28 11:03:20+00:00,51.27552717,2.6068745,-3.46,0.06,0.06,269.99,,0002_20210528_105946
0,0,0,0,0,0,0,0,0.0038,0.0238,0.0823,0.163,0.2591,0.3725,0.3558,0.2957,0.2132,0.1874,0.1563,0.1749,0.1945,0.2537,0.3818,0.6031,0.7929,0.9996,1.2113,1.4241,1.6425,1.8737,2.0779,2.1498,1.9317,1.3993,0.7259,0.2417,13.7429,1.1409,11.57,0.075,0.9933,5.19,-5,2021,5,28,11,3,21,5/28/2021,11:03:21 AM,5/28/2021 11:03:21,6.554,122.32,20.1912,46,2503,2711,3299,0,24015,104,0,0.964,1.459,11:03:21 AM,51.27543622,2.60689867,1.5,RTK       ,,,,,,,2021-05-28 11:03:21+00:00,51.27552517,2.606887167,-4.18,0.06,0.06,269.86,,0002_20210528_105946
0,0,0,0,0,0,0,0.0013,0.0064,0.0323,0.0976,0.1806,0.2717,0.3623,0.3281,0.261,0.185,0.1599,0.1348,0.1513,0.169,0.2217,0.3322,0.5265,0.7193,0.9593,1.2392,1.5381,1.8195,2.0449,2.1892,2.2606,2.2053,2.0179,1.4839,0.6453,13.9312,1.1381,11.58,0.075,0.9939,5.2,-5,2021,5,28,11,3,22,5/28/2021,11:03:22 AM,5/28/2021 11:03:22,6.554,138.19,22.544,46,2508,2715,3300,0,24017,101,0,0.961,1.579,11:03:22 AM,51.27544072,2.6069075,1.5,RTK       ,,,,,,,2021-05-28 11:03:22+00:00,51.27552983,2.6068945,-4.49,0.06,0.06,269.79,,0002_20210528_105946
0,0,0,0,0,0,0,0,0.0023,0.0186,0.0782,0.1614,0.2563,0.3631,0.3371,0.2825,0.2053,0.1817,0.1488,0.1647,0.1809,0.2336,0.353,0.5766,0.7892,1.0471,1.3284,1.6222,1.9763,2.4975,3.3164,4.4986,5.6474,5.6714,3.5255,1.0224,16.1212,1.1327,11.57,0.075,0.9939,5.22,-5,2021,5,28,11,3,23,5/28/2021,11:03:23 AM,5/28/2021 11:03:23,6.554,178.36,36.4863,46,2516,2728,3304,0,24020,91,0,0.957,1.771,11:03:23 AM,51.2754437,2.6069175,1.5,RTK       ,,,,,,,2021-05-28 11:03:23+00:00,51.275536,2.606901833,-3.64,0.06,0.06,269.98,,0002_20210528_105946
0,0,0,0,0,0,0,0.0013,0.0065,0.032,0.0944,0.1712,0.2578,0.3549,0.3383,0.2838,0.2075,0.1818,0.1524,0.1714,0.1918,0.2611,0.4167,0.6851,0.9071,1.0823,1.1797,1.2312,1.3133,1.51,1.8754,2.4618,3.0947,3.2766,2.3531,0.9941,12.907,1.1402,11.57,0.075,0.9933,5.16,-5,2021,5,28,11,3,24,5/28/2021,11:03:24 AM,5/28/2021 11:03:24,6.554,151.51,25.0873,45,2503,2733,3303,0,24011,101,0,0.964,1.483,11:03:24 AM,51.27544682,2.60692717,1.5,RTK       ,,,,,,,2021-05-28 11:03:24+00:00,,,,,,,,0002_20210528_105946
0,0,0,0,0,0,0,0.0017,0.0081,0.0375,0.1062,0.185,0.2666,0.3512,0.3299,0.2819,0.2162,0.1984,0.1761,0.2018,0.2301,0.3009,0.4424,0.6611,0.8255,0.9875,1.1736,1.4356,1.8077,2.294,2.8108,3.2735,3.4363,2.9906,1.8204,0.6916,15.3298,1.1402,11.58,0.075,0.9933,5.18,-5,2021,5,28,11,3,25,5/28/2021,11:03:25 AM,5/28/2021 11:03:25,6.554,148.82,27.5422,45,2480,2723,3293,0,24014,118,0,0.964,1.483,11:03:25 AM,51.27545147,2.60693483,1.4,RTK       ,,,,,,,2021-05-28 11:03:25+00:00,,,,,,,,0002_20210528_105946
0,0,0,0,0,0,0,0.0016,0.0074,0.0339,0.0963,0.1751,0.2659,0.3649,0.3458,0.286,0.2081,0.1814,0.1523,0.1682,0.1847,0.2428,0.3706,0.6023,0.8304,1.0644,1.2426,1.349,1.4564,1.6786,2.1131,2.7708,3.3225,3.0674,1.8346,0.6814,13.4218,1.1361,11.58,0.075,0.9933,5.26,-5,2021,5,28,11,3,26,5/28/2021,11:03:26 AM,5/28/2021 11:03:26,6.554,148.13,25.0986,46,2496,2723,3309,0,24027,90,0,0.96,1.627,11:03:26 AM,51.27545592,2.606942,1.3,RTK       ,,,,,,,2021-05-28 11:03:26+00:00,,,,,,,,0002_20210528_105946
0,0,0,0,0,0,0,0,0.0029,0.0228,0.0905,0.1812,0.28,0.3877,0.3549,0.2977,0.2206,0.2042,0.1781,0.2095,0.2448,0.3335,0.5258,0.8629,1.1381,1.4173,1.6836,1.9476,2.2495,2.6453,3.1114,3.5377,3.5817,2.8912,1.5216,0.4389,18.5899,1.134,11.57,0.075,0.9927,5.22,-5,2021,5,28,11,3,27,5/28/2021,11:03:27 AM,5/28/2021 11:03:27,6.554,141.33,30.5612,46,2506,2719,3308,0,24020,93,0,0.959,1.676,11:03:27 AM,51.27546022,2.60694967,1.4,RTK       ,,,,,,,2021-05-28 11:03:27+00:00,51.27555017,2.6069455,-4.61,0.06,0.06,269.79,,0002_20210528_105946
0,0,0,0,0,0,0,0.0011,0.0061,0.033,0.1033,0.1859,0.2764,0.376,0.3554,0.3034,0.2287,0.206,0.1757,0.1943,0.2134,0.2746,0.41,0.6632,0.9224,1.2293,1.5569,1.8813,2.1847,2.4528,2.6631,2.8296,2.8371,2.5165,1.6524,0.6507,16.897,1.134,11.58,0.075,0.9933,5.22,-5,2021,5,28,11,3,28,5/28/2021,11:03:28 AM,5/28/2021 11:03:28,6.554,139.71,27.3832,46,2502,2721,3289,0,24020,94,0,0.958,1.699,11:03:28 AM,51.2754655,2.6069575,1.7,RTK       ,,,,,,,2021-05-28 11:03:28+00:00,51.27555317,2.606951667,-4.62,0.06,0.06,269.77,,0002_20210528_105946
0,0,0,0,0,0,0,0,0.0047,0.0274,0.0912,0.1762,0.2695,0.3686,0.3379,0.2749,0.1983,0.1763,0.1519,0.1739,0.1979,0.2594,0.3856,0.5935,0.7623,0.9368,1.1096,1.2891,1.5111,1.8347,2.3109,2.9578,3.544,3.5463,2.4661,0.9977,13.4417,1.1368,11.57,0.075,0.9933,5.12,-5,2021,5,28,11,3,29,5/28/2021,11:03:29 AM,5/28/2021 11:03:29,6.554,158.52,26.9537,46,2494,2722,3280,0,24005,105,0,0.961,1.603,11:03:29 AM,51.27547118,2.60696533,1.5,RTK       ,,,,,,,2021-05-28 11:03:29+00:00,51.27555817,2.606956,-4.77,0.06,0.06,269.73,,0002_20210528_105946
0,0,0,0,0,0,0,0.0013,0.0064,0.0321,0.0955,0.1738,0.2594,0.3493,0.3256,0.2725,0.204,0.1839,0.1583,0.1772,0.1972,0.2594,0.3952,0.6272,0.818,0.9829,1.1134,1.2481,1.4411,1.7516,2.1832,2.633,2.7252,2.2037,1.2478,0.4614,13.2566,1.1395,11.56,0.075,0.9945,5.17,-5,2021,5,28,11,3,30,5/28/2021,11:03:30 AM,5/28/2021 11:03:30,6.554,137.47,22.5277,45,2500,2719,3300,0,24012,83,0,0.962,1.554,11:03:30 AM,51.27547565,2.606972,1.1,RTK       ,,,,,,,2021-05-28 11:03:30+00:00,,,,,,,,0002_20210528_105946
0,0,0,0,0,0,0,0,0.003,0.0207,0.0798,0.1643,0.2639,0.3747,0.3486,0.2873,0.2053,0.1785,0.147,0.1651,0.1841,0.2494,0.3992,0.6798,0.9497,1.2326,1.4799,1.6845,1.9062,2.2533,2.7921,3.5423,4.1297,3.8553,2.2364,0.7255,16.049,1.1368,11.58,0.075,0.9939,5.33,-5,2021,5,28,11,3,31,5/28/2021,11:03:31 AM,5/28/2021 11:03:31,6.554,157,30.5382,45,2507,2721,3316,0,24037,84,0,0.96,1.627,11:03:31 AM,51.27547872,2.60697917,1.2,RTK       ,,,,,,,2021-05-28 11:03:31+00:00,51.27556717,2.6069725,-4.53,0.06,0.06,269.79,,0002_20210528_105946
0,0,0,0,0,0,0,0.001,0.0057,0.0308,0.0985,0.1837,0.2768,0.375,0.3476,0.2894,0.214,0.1924,0.1676,0.1935,0.222,0.2992,0.4636,0.7402,0.9671,1.1584,1.2897,1.4056,1.5864,1.9186,2.4597,3.29,4.3699,5.4051,4.9708,2.6002,14.8865,1.134,11.58,0.075,0.9939,5.36,-5,2021,5,28,11,3,32,5/28/2021,11:03:32 AM,5/28/2021 11:03:32,6.554,181.1,35.5224,46,2502,2727,3310,0,24042,98,0,0.958,1.723,11:03:32 AM,51.27548208,2.60698833,1.6,RTK       ,,,,,,,2021-05-28 11:03:32+00:00,51.27557233,2.606982833,-4.53,0.07,0.07,269.88,,0002_20210528_105946
0,0,0,0,0,0,0,0,0.0048,0.029,0.0966,0.1794,0.2718,0.3793,0.3652,0.3161,0.2382,0.2144,0.1805,0.1996,0.2192,0.2804,0.4151,0.6586,0.892,1.1778,1.5114,1.8921,2.3337,2.8462,3.3164,3.5238,3.1767,2.331,1.2179,0.3913,18.0178,1.1361,11.57,0.075,0.9933,5.19,-5,2021,5,28,11,3,33,5/28/2021,11:03:33 AM,5/28/2021 11:03:33,6.554,139.58,28.6585,46,2495,2725,3295,0,24016,105,0,0.96,1.627,11:03:33 AM,51.27548672,2.60699833,1.7,RTK       ,,,,,,,2021-05-28 11:03:33+00:00,51.27557883,2.606989333,-4.32,0.07,0.07,269.91,,0002_20210528_105946
0,0,0,0,0,0,0,0,0.0038,0.0238,0.0877,0.176,0.2784,0.3892,0.3626,0.3008,0.2181,0.1898,0.1573,0.1744,0.1919,0.2546,0.397,0.6631,0.9239,1.2023,1.4733,1.7446,2.076,2.5294,3.1629,3.9309,4.4207,3.9496,2.3768,0.8167,16.9809,1.1333,11.58,0.075,0.9927,5.13,-5,2021,5,28,11,3,34,5/28/2021,11:03:34 AM,5/28/2021 11:03:34,6.554,158.94,32.4753,45,2505,2723,3294,0,24007,105,0,0.958,1.7,11:03:34 AM,51.27549183,2.60700783,1.7,RTK       ,,,,,,,2021-05-28 11:03:34+00:00,51.2755805,2.606996667,-4.08,0.07,0.07,269.93,,0002_20210528_105946
0,0,0,0,0,0,0,0,0.0055,0.0323,0.106,0.1911,0.28,0.3717,0.3408,0.2857,0.2131,0.1925,0.1648,0.1852,0.2067,0.2676,0.3979,0.6241,0.8295,1.0675,1.328,1.6229,1.9734,2.4297,3.0151,3.7204,4.2324,3.9159,2.3657,0.7418,16.1311,1.132,11.58,0.075,0.9927,5.14,-5,2021,5,28,11,3,35,5/28/2021,11:03:35 AM,5/28/2021 11:03:35,6.554,158.51,31.1074,46,2507,2726,3289,0,24008,94,0,0.957,1.748,11:03:35 AM,51.2754963,2.6070155,1.3,RTK       ,,,,,,,2021-05-28 11:03:35+00:00,51.275584,2.607002667,-4.2,0.07,0.07,269.91,,0002_20210528_105946
0,0,0,0,0,0,0,0,0.0053,0.0294,0.094,0.1777,0.2753,0.3827,0.3526,0.2779,0.1888,0.158,0.1279,0.1432,0.1593,0.2185,0.3551,0.6042,0.8309,1.0411,1.2,1.3361,1.5405,1.9236,2.5124,3.2354,3.7128,3.4519,2.1057,0.6929,13.9345,1.1347,11.57,0.075,0.9933,5.25,-5,2021,5,28,11,3,36,5/28/2021,11:03:36 AM,5/28/2021 11:03:36,6.554,155.8,27.133,46,2514,2735,3309,0,24025,90,0,0.959,1.675,11:03:36 AM,51.27549965,2.6070215,1.1,RTK       ,,,,,,,2021-05-28 11:03:36+00:00,,,,,,,,0002_20210528_105946
0,0,0,0,0,0,0,0,0.0015,0.0155,0.0731,0.1565,0.2536,0.367,0.3364,0.273,0.1862,0.156,0.1196,0.1331,0.1469,0.2051,0.3553,0.6682,0.9818,1.2835,1.5044,1.6662,1.8345,2.1255,2.6326,3.4817,4.2177,3.8749,2.0356,0.4485,15.4755,1.1361,11.58,0.075,0.9927,5.38,-5,2021,5,28,11,3,37,5/28/2021,11:03:37 AM,5/28/2021 11:03:37,6.554,157.04,29.534,45,2509,2722,3331,0,24045,94,0,0.961,1.604,11:03:37 AM,51.2755036,2.60702733,1.4,RTK       ,,,,,,,2021-05-28 11:03:37+00:00,,,,,,,,0002_20210528_105946
0,0,0,0,0,0,0,0,0.0035,0.024,0.0914,0.181,0.2789,0.381,0.351,0.296,0.2204,0.1982,0.1692,0.1946,0.2221,0.3046,0.4897,0.8238,1.12,1.4032,1.6742,1.9986,2.4598,3.1072,3.8526,4.5255,4.6836,3.9249,2.3297,0.8952,19.845,1.1306,11.58,0.075,0.9933,5.3,-5,2021,5,28,11,3,38,5/28/2021,11:03:38 AM,5/28/2021 11:03:38,6.554,157.39,36.2039,46,2503,2712,3307,0,24033,109,0,0.956,1.82,11:03:38 AM,51.27550953,2.607036,1.9,RTK       ,,,,,,,2021-05-28 11:03:38+00:00,,,,,,,,0002_20210528_105946
0,0,0,0,0,0,0,0,0.0046,0.0275,0.0954,0.1812,0.2778,0.387,0.3703,0.3212,0.2438,0.2222,0.1915,0.2189,0.2483,0.3357,0.5263,0.856,1.1314,1.3827,1.6051,1.8721,2.2901,2.9467,3.7983,4.6453,5.0849,4.7003,3.1927,1.1033,19.5341,1.1299,11.57,0.075,0.9945,5.1,-5,2021,5,28,11,3,39,5/28/2021,11:03:39 AM,5/28/2021 11:03:39,6.554,163.22,38.2605,46,2500,2710,3277,0,24001,96,0,0.954,1.891,11:03:39 AM,51.27551557,2.60704533,1.7,RTK       ,,,,,,,2021-05-28 11:03:39+00:00,51.27560617,2.607029833,-0.69,0.07,0.07,269.81,,0002_20210528_105946
0,0,0,0,0,0,0,0,0.0057,0.0324,0.1042,0.1867,0.2736,0.3659,0.338,0.2833,0.2084,0.1865,0.1596,0.1843,0.2111,0.2931,0.4805,0.8446,1.2325,1.6559,2.0121,2.263,2.4878,2.8445,3.4656,4.3925,5.1374,4.7242,2.7141,0.9717,20.1193,1.1306,11.58,0.075,0.9933,5.09,-5,2021,5,28,11,3,40,5/28/2021,11:03:40 AM,5/28/2021 11:03:40,6.554,160.48,38.0595,46,2502,2725,3286,0,24000,95,0,0.956,1.82,11:03:40 AM,51.2755198,2.607053,1.1,RTK       ,,,,,,,2021-05-28 11:03:40+00:00,51.275611,2.607036667,-3.43,0.06,0.06,269.98,,0002_20210528_105946
0,0,0,0,0,0,0,0,0.0024,0.0195,0.0788,0.1617,0.2585,0.3671,0.3302,0.2591,0.1741,0.1472,0.1162,0.1301,0.1448,0.1987,0.3264,0.5623,0.7633,0.967,1.1772,1.4436,1.8256,2.3833,3.0657,3.6657,3.5959,2.5935,1.1676,0.2949,14.9028,1.1381,11.58,0.075,0.9933,5.28,-5,2021,5,28,11,3,41,5/28/2021,11:03:41 AM,5/28/2021 11:03:41,6.554,149.74,26.2203,46,2508,2720,3315,0,24030,104,0,0.962,1.555,11:03:41 AM,51.2755225,2.6070595,1.1,RTK       ,,,,,,,2021-05-28 11:03:41+00:00,,,,,,,,0002_20210528_105946
0,0,0,0,0,0,0,0,0.0051,0.0271,0.0869,0.1678,0.2618,0.3624,0.3361,0.2734,0.1968,0.1727,0.1473,0.1684,0.1914,0.2586,0.4015,0.6364,0.8192,0.972,1.0999,1.2506,1.484,1.8824,2.4899,3.2208,3.5821,3.0352,1.7568,0.6324,13.6917,1.1368,11.57,0.075,0.9939,5.34,-5,2021,5,28,11,3,42,5/28/2021,11:03:42 AM,5/28/2021 11:03:42,6.554,151.44,25.9194,45,2508,2725,3330,0,24040,97,0,0.96,1.627,11:03:42 AM,51.27552568,2.60706817,1.6,RTK       ,,,,,,,2021-05-28 11:03:42+00:00,,,,,,,,0002_20210528_105946
0,0,0,0,0,0,0,0,0.0046,0.0282,0.0968,0.1846,0.2802,0.3796,0.3487,0.2923,0.2183,0.2004,0.1759,0.2053,0.2382,0.3318,0.5419,0.9213,1.2372,1.4592,1.5231,1.5016,1.5263,1.7219,2.1983,3.0506,4.0821,4.4637,3.1219,1.1041,15.6157,1.1327,11.58,0.075,0.9939,5.17,-5,2021,5,28,11,3,43,5/28/2021,11:03:43 AM,5/28/2021 11:03:43,6.554,156.93,31.4379,45,2492,2727,3286,0,24012,101,0,0.957,1.771,11:03:43 AM,51.27553058,2.60707817,1.8,RTK       ,,,,,,,2021-05-28 11:03:43+00:00,,,,,,,,0002_20210528_105946
0,0,0,0,0,0,0,0,0.0029,0.0214,0.0841,0.1693,0.27,0.3942,0.39,0.3468,0.2623,0.2332,0.1901,0.206,0.2214,0.2828,0.4255,0.697,0.9661,1.2783,1.5988,1.9126,2.2419,2.7142,3.4422,4.5227,5.3688,4.9744,2.8411,0.8509,18.3511,1.1306,11.58,0.075,0.9933,5.1,-5,2021,5,28,11,3,44,5/28/2021,11:03:44 AM,5/28/2021 11:03:44,6.554,164.14,36.9089,45,2499,2729,3288,0,24002,97,0,0.956,1.82,11:03:44 AM,51.27553595,2.6070865,1.5,RTK       ,,,,,,,2021-05-28 11:03:44+00:00,51.275626,2.607072333,-4.49,0.06,0.06,269.83,,0002_20210528_105946
0,0,0,0,0,0,0,0.0011,0.0059,0.0301,0.0913,0.1686,0.2554,0.3484,0.3229,0.2642,0.1924,0.1716,0.1481,0.1686,0.1909,0.2526,0.3826,0.594,0.7557,0.8971,1.0094,1.1175,1.268,1.5122,1.8576,2.2599,2.4504,2.0824,1.1582,0.3832,12.0062,1.145,11.58,0.075,0.9933,5.17,-5,2021,5,28,11,3,45,5/28/2021,11:03:45 AM,5/28/2021 11:03:45,6.554,134.19,20.3403,46,2510,2722,3301,0,24012,100,0,0.968,1.316,11:03:45 AM,51.2755406,2.60709317,1.3,RTK       ,,,,,,,2021-05-28 11:03:45+00:00,51.2756275,2.607081,-5.56,0.06,0.06,269.58,,0002_20210528_105946
0,0,0,0,0,0,0,0,0.0048,0.028,0.0946,0.1816,0.277,0.3712,0.3322,0.2645,0.1868,0.1621,0.1361,0.1568,0.1795,0.2531,0.4243,0.7279,0.9682,1.1252,1.2122,1.334,1.6074,2.163,3.0493,4.1173,4.6185,3.8269,2.0398,0.693,15.2398,1.1388,11.53,0.075,0.9921,5.24,-5,2021,5,28,11,3,46,5/28/2021,11:03:46 AM,5/28/2021 11:03:46,6.554,160.03,30.5354,45,2519,2721,3312,0,24023,93,0,0.964,1.484,11:03:46 AM,51.27554507,2.6070995,1.4,RTK       ,,,,,,,2021-05-28 11:03:46+00:00,,,,,,,,0002_20210528_105946
0,0,0,0,0,0,0,0.0018,0.0085,0.0397,0.1065,0.1797,0.2589,0.3513,0.3409,0.2949,0.2217,0.1977,0.1659,0.1819,0.1979,0.2567,0.3892,0.6341,0.8819,1.1849,1.5415,1.9808,2.5177,3.0939,3.5148,3.5505,3.1075,2.3695,1.4408,0.6005,18.5428,1.1333,11.52,0.075,0.9939,5.21,-5,2021,5,28,11,3,47,5/28/2021,11:03:47 AM,5/28/2021 11:03:47,6.554,143.84,29.6115,46,2516,2728,3305,0,24019,95,0,0.957,1.747,11:03:47 AM,51.27554987,2.60710667,1.4,RTK       ,,,,,,,2021-05-28 11:03:47+00:00,,,,,,,,0002_20210528_105946
0,0,0,0,0,0,0,0.0012,0.0066,0.0364,0.1108,0.1893,0.2693,0.3507,0.3162,0.2595,0.1893,0.172,0.1516,0.1801,0.2127,0.2947,0.472,0.7807,1.0477,1.311,1.5387,1.7253,1.9233,2.2513,2.8492,3.7827,4.6978,4.6397,2.9032,0.9811,16.6396,1.1327,11.52,0.075,0.9939,5.15,-5,2021,5,28,11,3,48,5/28/2021,11:03:48 AM,5/28/2021 11:03:48,6.554,163.46,33.6438,45,2490,2727,3292,0,24010,100,0,0.957,1.771,11:03:48 AM,51.27555483,2.6071145,1.5,RTK       ,,,,,,,2021-05-28 11:03:48+00:00,,,,,,,,0002_20210528_105946
0,0,0,0,0,0,0,0.0019,0.0082,0.0363,0.1025,0.184,0.2725,0.3615,0.3332,0.2741,0.2024,0.1798,0.1569,0.1793,0.2036,0.2778,0.4394,0.7256,0.9969,1.2552,1.4587,1.6155,1.7861,2.0389,2.3813,2.7477,2.9334,2.6353,1.7283,0.7603,15.4716,1.1374,11.53,0.075,0.9939,5.17,-5,2021,5,28,11,3,49,5/28/2021,11:03:49 AM,5/28/2021 11:03:49,6.554,141.87,26.2766,45,2499,2722,3304,0,24013,106,0,0.961,1.603,11:03:49 AM,51.27555972,2.60712217,1.5,RTK       ,,,,,,,2021-05-28 11:03:49+00:00,51.27564,2.607116167,-4.71,0.06,0.06,269.76,,0002_20210528_105946
0,0,0,0,0,0,0,0,0.0027,0.0209,0.0843,0.1704,0.2695,0.3824,0.3592,0.3052,0.2253,0.2033,0.1712,0.196,0.2231,0.2994,0.4654,0.7494,0.9674,1.1714,1.3561,1.5482,1.7817,2.1126,2.5993,3.251,3.7057,3.2392,1.7208,0.4673,15.6644,1.1354,11.52,0.075,0.9933,5.19,-5,2021,5,28,11,3,50,5/28/2021,11:03:50 AM,5/28/2021 11:03:50,6.554,146.2,28.0482,45,2508,2724,3307,0,24016,103,0,0.96,1.651,11:03:50 AM,51.27556435,2.60713,1.4,RTK       ,,,,,,,2021-05-28 11:03:50+00:00,51.2756455,2.607121167,-4.37,0.06,0.06,269.84,,0002_20210528_105946
0,0,0,0,0,0,0,0,0.0017,0.0152,0.072,0.1615,0.2734,0.4049,0.3843,0.3284,0.2431,0.2189,0.1851,0.2128,0.2429,0.3238,0.4937,0.7653,0.943,1.0859,1.2129,1.3871,1.714,2.3712,3.6436,5.8549,8.7244,9.4302,5.3377,1.2417,16.6847,1.1258,11.53,0.075,0.9933,5.17,-5,2021,5,28,11,3,51,5/28/2021,11:03:51 AM,5/28/2021 11:03:51,6.554,195.05,47.2734,45,2508,2729,3303,0,24013,94,0,0.951,1.99,11:03:51 AM,51.27556773,2.60713883,1.4,RTK       ,,,,,,,2021-05-28 11:03:51+00:00,51.27565017,2.6071175,-4.23,0.06,0.06,269.86,,0002_20210528_105946
0,0,0,0,0,0,0,0,0.0026,0.0197,0.0799,0.1637,0.2629,0.3791,0.3589,0.303,0.2195,0.1927,0.1573,0.1751,0.1933,0.254,0.3906,0.6365,0.8531,1.0881,1.3368,1.6328,2.0545,2.7446,3.8535,5.4153,6.7115,6.4219,4.1095,1.6129,17.3522,1.1313,11.52,0.075,0.9927,5.17,-5,2021,5,28,11,3,52,5/28/2021,11:03:52 AM,5/28/2021 11:03:52,6.554,185.27,41.6235,46,2511,2721,3303,0,24013,102,0,0.957,1.772,11:03:52 AM,51.27557077,2.60714883,1.5,RTK       ,,,,,,,2021-05-28 11:03:52+00:00,51.2756535,2.607127,-4.34,0.06,0.06,269.82,,0002_20210528_105946
0,0,0,0,0,0,0,0,0.0025,0.02,0.0846,0.1745,0.2759,0.3862,0.3489,0.284,0.2022,0.1802,0.1545,0.1838,0.2171,0.2987,0.4723,0.765,0.9938,1.2218,1.4676,1.7869,2.2444,2.8921,3.7211,4.546,4.8629,3.9919,2.1292,0.6264,18.3781,1.1313,11.52,0.075,0.9939,5.12,-5,2021,5,28,11,3,53,5/28/2021,11:03:53 AM,5/28/2021 11:03:53,6.554,158.92,34.5348,45,2502,2731,3288,0,24004,113,0,0.956,1.819,11:03:53 AM,51.27557583,2.60715733,1.7,RTK       ,,,,,,,2021-05-28 11:03:53+00:00,,,,,,,,0002_20210528_105946
0,0,0,0,0,0,0,0.0016,0.0075,0.0339,0.098,0.1759,0.2653,0.3654,0.3535,0.303,0.228,0.2016,0.171,0.1865,0.2019,0.258,0.3834,0.617,0.8588,1.1245,1.394,1.6872,2.036,2.4645,2.9615,3.4451,3.6042,3.0912,1.8744,0.6735,16.378,1.1361,11.52,0.075,0.9927,5.05,-5,2021,5,28,11,3,54,5/28/2021,11:03:54 AM,5/28/2021 11:03:54,6.554,149.89,29.0664,45,2491,2728,3295,0,23994,120,0,0.961,1.604,11:03:54 AM,51.27558233,2.60716333,1.5,RTK       ,,,,,,,2021-05-28 11:03:54+00:00,,,,,,,,0002_20210528_105946
0,0,0,0,0,0,0,0.0013,0.0061,0.0281,0.0882,0.1706,0.2642,0.3585,0.3351,0.281,0.2125,0.1905,0.169,0.1927,0.2181,0.2853,0.4196,0.644,0.8508,1.058,1.253,1.4558,1.7074,2.0954,2.7384,3.748,4.9327,5.6522,4.9646,2.9678,15.0236,1.134,11.53,0.075,0.9939,5.12,-5,2021,5,28,11,3,55,5/28/2021,11:03:55 AM,5/28/2021 11:03:55,6.554,187.87,37.2886,46,2496,2715,3308,0,24004,108,0,0.958,1.723,11:03:55 AM,51.27558768,2.60716767,1.2,RTK       ,,,,,,,2021-05-28 11:03:55+00:00,,,,,,,,0002_20210528_105946
0,0,0,0,0,0,0,0.0013,0.0065,0.0323,0.0956,0.1747,0.2611,0.3527,0.3318,0.2804,0.2117,0.1925,0.1685,0.1914,0.2161,0.2861,0.4344,0.6735,0.848,0.9787,1.0684,1.1623,1.3298,1.6733,2.2769,3.1366,3.768,3.4935,2.1565,0.8542,13.248,1.1402,11.52,0.075,0.9933,5.22,-5,2021,5,28,11,3,56,5/28/2021,11:03:56 AM,5/28/2021 11:03:56,6.554,155.13,26.6568,45,2505,2704,3313,0,24020,104,0,0.964,1.483,11:03:56 AM,51.27559187,2.607174,1.4,RTK       ,,,,,,,2021-05-28 11:03:56+00:00,51.2756855,2.607159,-5.15,0.06,0.06,269.63,,0002_20210528_105946
0,0,0,0,0,0,0,0,0.0053,0.0294,0.0958,0.1798,0.272,0.3686,0.3406,0.2828,0.2079,0.1848,0.1582,0.1827,0.2098,0.2887,0.459,0.7613,1.0507,1.3595,1.6324,1.8397,1.9987,2.165,2.3377,2.4791,2.4158,2.0157,1.2328,0.4551,16.4104,1.1368,11.52,0.075,0.9939,5.18,-5,2021,5,28,11,3,57,5/28/2021,11:03:57 AM,5/28/2021 11:03:57,6.554,130.58,25.0089,46,2497,2712,3292,0,24014,112,0,0.96,1.627,11:03:57 AM,51.27559623,2.60718333,1.7,RTK       ,,,,,,,2021-05-28 11:03:57+00:00,51.27568183,2.607168333,-4.22,0.06,0.06,269.84,,0002_20210528_105946
0,0,0,0,0,0,0,0,0.0027,0.0237,0.0967,0.1851,0.2759,0.3748,0.3387,0.2849,0.21,0.1919,0.1617,0.189,0.2196,0.3046,0.4995,0.8322,1.0596,1.2314,1.3653,1.5404,1.8575,2.4516,3.4432,4.8355,5.9044,5.2488,2.6551,0.6996,17.14,1.1313,11.53,0.075,0.9933,5.06,-5,2021,5,28,11,3,58,5/28/2021,11:03:58 AM,5/28/2021 11:03:58,6.554,167.51,36.4835,46,2494,2731,3276,0,23995,117,0,0.956,1.796,11:03:58 AM,51.2756005,2.60719383,1.6,RTK       ,,,,,,,2021-05-28 11:03:58+00:00,,,,,,,,0002_20210528_105946
0,0,0,0,0,0,0,0.0015,0.0073,0.0363,0.1059,0.1872,0.2732,0.3614,0.3339,0.2807,0.212,0.1948,0.1726,0.201,0.2325,0.3159,0.4909,0.7777,1.0058,1.2036,1.3612,1.5397,1.8663,2.5135,3.5898,4.9694,5.9142,5.4141,3.2709,1.2149,17.2647,1.1333,11.53,0.075,0.9939,5.04,-5,2021,5,28,11,3,59,5/28/2021,11:03:59 AM,5/28/2021 11:03:59,6.554,172.85,38.0481,46,2506,2730,3299,0,23992,93,0,0.957,1.747,11:03:59 AM,51.27560387,2.607203,1.3,RTK       ,,,,,,,2021-05-28 11:03:59+00:00,,,,,,,,0002_20210528_105946
0,0,0,0,0,0,0,0.0017,0.0086,0.0417,0.1131,0.1858,0.2553,0.3283,0.31,0.2741,0.2167,0.2013,0.1729,0.189,0.2052,0.2646,0.4011,0.6611,0.9313,1.2397,1.5147,1.7053,1.8238,1.9727,2.2132,2.6286,3.0568,3.1568,2.2712,0.9782,15.2312,1.1388,11.52,0.075,0.9927,5.12,-5,2021,5,28,11,4,0,5/28/2021,11:04:00 AM,5/28/2021 11:04:00,6.554,148.82,27.3229,46,2501,2717,3307,0,24004,101,0,0.963,1.507,11:04:00 AM,51.27560812,2.60721,1.5,RTK       ,,,,,,,2021-05-28 11:04:00+00:00,,,,,,,,0002_20210528_105946
0,0,0,0,0,0,0,0,0.0033,0.024,0.0913,0.1739,0.2608,0.3551,0.327,0.2789,0.2085,0.191,0.165,0.1925,0.2227,0.3054,0.4953,0.8469,1.1585,1.4407,1.6748,1.9533,2.4186,3.2613,4.5657,6.244,7.2827,6.0318,2.7417,0.6979,20.6145,1.1272,11.52,0.075,0.9927,5.13,-5,2021,5,28,11,4,1,5/28/2021,11:04:01 AM,5/28/2021 11:04:01,6.554,172.93,43.6126,45,2495,2719,3301,0,24007,111,0,0.953,1.917,11:04:01 AM,51.27561377,2.60721617,1.5,RTK       ,,,,,,,2021-05-28 11:04:01+00:00,51.27570283,2.607197167,-4.66,0.09,0.09,269.93,,0002_20210528_105946
0,0,0,0,0,0,0,0,0.0028,0.0209,0.0866,0.1779,0.2794,0.3832,0.3468,0.2908,0.218,0.2007,0.1774,0.2098,0.2464,0.3359,0.5249,0.8514,1.13,1.3912,1.5978,1.7763,2.0074,2.4235,3.1312,4.3158,5.9176,7.0973,5.3944,2.022,17.8103,1.1347,11.52,0.075,0.9927,5.14,-5,2021,5,28,11,4,2,5/28/2021,11:04:02 AM,5/28/2021 11:04:02,6.554,183.55,42.5575,45,2496,2721,3300,0,24008,104,0,0.96,1.652,11:04:02 AM,51.27561938,2.6072225,1.5,RTK       ,,,,,,,2021-05-28 11:04:02+00:00,51.2757105,2.6072035,-4.09,0.09,0.09,269.97,,0002_20210528_105946
0,0,0,0,0,0,0,0.0013,0.0069,0.0356,0.1087,0.1938,0.287,0.3876,0.365,0.3099,0.2325,0.2089,0.1799,0.2029,0.2274,0.3016,0.4678,0.77,1.0486,1.3006,1.4906,1.6605,1.8893,2.2833,2.9151,3.7413,4.2995,3.8596,2.2893,0.801,16.8748,1.132,11.51,0.075,0.9927,5.1,-5,2021,5,28,11,4,3,5/28/2021,11:04:03 AM,5/28/2021 11:04:03,6.554,153.37,31.8654,46,2486,2706,3293,0,24002,117,0,0.957,1.748,11:04:03 AM,51.27562443,2.60723,1.6,RTK       ,,,,,,,2021-05-28 11:04:03+00:00,,,,,,,,0002_20210528_105946
0,0,0,0,0,0,0,0,0.0038,0.0256,0.0924,0.1766,0.2704,0.3775,0.3528,0.2951,0.2135,0.19,0.1607,0.1863,0.2145,0.2946,0.4751,0.8025,1.0929,1.361,1.5473,1.6757,1.851,2.24,2.9765,4.1649,5.455,5.675,3.6755,1.2488,16.8758,1.1292,11.52,0.075,0.9933,5.08,-5,2021,5,28,11,4,4,5/28/2021,11:04:04 AM,5/28/2021 11:04:04,6.554,171.87,37.0948,46,2492,2713,3288,0,23998,120,0,0.954,1.868,11:04:04 AM,51.27562892,2.6072385,1.4,RTK       ,,,,,,,2021-05-28 11:04:04+00:00,,,,,,,,0002_20210528_105946
0,0,0,0,0,0,0,0,0.0013,0.0131,0.0663,0.1523,0.2611,0.3911,0.3647,0.3028,0.2143,0.1875,0.1519,0.1736,0.1971,0.2768,0.4684,0.8402,1.169,1.4564,1.6461,1.7666,1.9169,2.1802,2.5911,3.0421,3.1563,2.5024,1.223,0.3268,16.7888,1.1327,11.52,0.075,0.9927,5.1,-5,2021,5,28,11,4,5,5/28/2021,11:04:05 AM,5/28/2021 11:04:05,6.554,136.46,27.0395,46,2504,2730,3294,0,24002,113,0,0.958,1.724,11:04:05 AM,51.27563275,2.60724717,1.3,RTK       ,,,,,,,2021-05-28 11:04:05+00:00,,,,,,,,0002_20210528_105946
0,0,0,0,0,0,0,0.001,0.0057,0.0304,0.094,0.1739,0.2618,0.3566,0.3298,0.2717,0.1992,0.1795,0.1562,0.1798,0.2055,0.2706,0.4048,0.6239,0.8023,0.9925,1.2018,1.4672,1.829,2.3655,3.105,4.0647,4.9503,5.0321,3.4411,1.2222,15.5077,1.1374,11.53,0.075,0.9927,5.15,-5,2021,5,28,11,4,6,5/28/2021,11:04:06 AM,5/28/2021 11:04:06,6.554,174.28,34.2181,45,2504,2729,3303,0,24009,107,0,0.962,1.555,11:04:06 AM,51.27563662,2.607255,1.4,RTK       ,,,,,,,2021-05-28 11:04:06+00:00,51.27573167,2.607231333,-4.83,0.06,0.06,269.64,,0002_20210528_105946
0,0,0,0,0,0,0,0,0.0023,0.0203,0.083,0.1667,0.2646,0.3843,0.3573,0.2895,0.1977,0.168,0.1301,0.1427,0.1555,0.2077,0.3348,0.5809,0.8121,1.0882,1.396,1.7273,2.0885,2.4865,2.8014,2.8593,2.4456,1.6288,0.7254,0.1938,15.8854,1.1374,11.53,0.075,0.9927,5.19,-5,2021,5,28,11,4,7,5/28/2021,11:04:07 AM,5/28/2021 11:04:07,6.554,131.83,23.7382,45,2500,2719,3311,0,24015,112,0,0.962,1.555,11:04:07 AM,51.2756412,2.6072625,1.5,RTK       ,,,,,,,2021-05-28 11:04:07+00:00,51.275735,2.607238167,-4.01,0.05,0.05,269.87,,0002_20210528_105946
0,0,0,0,0,0,0,0,0.0015,0.0157,0.0771,0.1663,0.271,0.3988,0.3824,0.3364,0.2533,0.2315,0.1903,0.2124,0.2354,0.2976,0.4304,0.6456,0.785,0.9342,1.1073,1.3587,1.7956,2.5579,3.7239,5.059,5.7546,4.8226,2.4278,0.5882,16.4083,1.1347,11.52,0.075,0.9933,5.15,-5,2021,5,28,11,4,8,5/28/2021,11:04:08 AM,5/28/2021 11:04:08,6.554,167.35,35.0605,45,2503,2713,3303,0,24009,118,0,0.959,1.675,11:04:08 AM,51.27564667,2.60727033,1.6,RTK       ,,,,,,,2021-05-28 11:04:08+00:00,,,,,,,,0002_20210528_105946
0,0,0,0,0,0,0,0,0.0029,0.0215,0.0823,0.1674,0.2661,0.375,0.3422,0.2759,0.1951,0.1727,0.1455,0.1669,0.1906,0.2541,0.3911,0.6296,0.8298,1.0364,1.2204,1.3821,1.5497,1.7647,2.0327,2.2672,2.2281,1.6968,0.8516,0.2351,13.4947,1.1388,11.52,0.075,0.9927,5.12,-5,2021,5,28,11,4,9,5/28/2021,11:04:09 AM,5/28/2021 11:04:09,6.554,126.75,20.7734,46,2501,2726,3290,0,24005,93,0,0.963,1.507,11:04:09 AM,51.27565193,2.607278,1.5,RTK       ,,,,,,,2021-05-28 11:04:09+00:00,,,,,,,,0002_20210528_105946
0,0,0,0,0,0,0,0.0013,0.0065,0.0329,0.0962,0.1738,0.2605,0.3584,0.3416,0.2905,0.2182,0.1991,0.1728,0.1969,0.223,0.2979,0.4562,0.7207,0.9412,1.1759,1.3999,1.6069,1.8358,2.1371,2.4809,2.7871,2.9811,2.873,2.1278,0.8921,15.6242,1.1374,11.52,0.075,0.9939,5.17,-5,2021,5,28,11,4,10,5/28/2021,11:04:10 AM,5/28/2021 11:04:10,6.554,146.1,27.2851,46,2512,2724,3304,0,24012,109,0,0.961,1.603,11:04:10 AM,51.27565637,2.60728533,1.4,RTK       ,,,,,,,2021-05-28 11:04:10+00:00,,,,,,,,0002_20210528_105946
0,0,0,0,0,0,0,0,0.0044,0.0264,0.0898,0.1744,0.2683,0.3645,0.3295,0.2642,0.1883,0.1656,0.1401,0.1602,0.1821,0.2459,0.3844,0.6199,0.8099,0.9864,1.1367,1.2792,1.455,1.7336,2.153,2.6487,2.8726,2.3797,1.2231,0.3209,13.1618,1.1374,11.51,0.075,0.9927,5.15,-5,2021,5,28,11,4,11,5/28/2021,11:04:11 AM,5/28/2021 11:04:11,6.554,138.74,22.6067,45,2510,2725,3305,0,24009,109,0,0.962,1.555,11:04:11 AM,51.27566045,2.607293,1.4,RTK       ,,,,,,,2021-05-28 11:04:11+00:00,51.27575017,2.607263333,-3.84,0.06,0.06,269.96,,0002_20210528_105946
0,0,0,0,0,0,0,0.0027,0.0099,0.0376,0.0991,0.1787,0.2674,0.3597,0.3435,0.2913,0.2212,0.1965,0.1732,0.1946,0.217,0.2831,0.4191,0.6525,0.8851,1.1327,1.3824,1.6544,1.9885,2.4436,3.0359,3.6839,4.0536,3.7977,2.7784,1.4832,16.4697,1.1333,11.52,0.075,0.9933,5.1,-5,2021,5,28,11,4,12,5/28/2021,11:04:12 AM,5/28/2021 11:04:12,6.554,162.19,32.2665,46,2487,2716,3292,0,24001,122,0,0.958,1.723,11:04:12 AM,51.27566555,2.6073005,1.5,RTK       ,,,,,,,2021-05-28 11:04:12+00:00,51.2757505,2.607265667,-5.39,0.06,0.06,269.65,,0002_20210528_105946
0,0,0,0,0,0,0,0,0.0034,0.0245,0.0899,0.1707,0.261,0.3652,0.3427,0.2885,0.2103,0.1889,0.1582,0.1809,0.2056,0.2761,0.4341,0.712,0.9351,1.1409,1.3135,1.4897,1.7352,2.0943,2.5114,2.8202,2.7001,2.0132,0.9655,0.2526,15.1321,1.1368,11.53,0.075,0.9927,5.15,-5,2021,5,28,11,4,13,5/28/2021,11:04:13 AM,5/28/2021 11:04:13,6.554,132.41,23.8837,46,2498,2713,3301,0,24009,118,0,0.961,1.58,11:04:13 AM,51.2756709,2.6073075,1.4,RTK       ,,,,,,,2021-05-28 11:04:13+00:00,,,,,,,,0002_20210528_105946
0,0,0,0,0,0,0,0,0.0027,0.0208,0.0811,0.1645,0.2626,0.3763,0.3438,0.2697,0.18,0.1505,0.1185,0.1338,0.1503,0.2114,0.3618,0.6505,0.9017,1.1123,1.2439,1.3263,1.4133,1.573,1.8405,2.1803,2.3017,1.8252,0.8758,0.2358,12.8893,1.1388,11.49,0.075,0.9939,5.14,-5,2021,5,28,11,4,14,5/28/2021,11:04:14 AM,5/28/2021 11:04:14,6.554,128.13,20.3081,46,2503,2719,3306,0,24008,111,0,0.962,1.555,11:04:14 AM,51.2756755,2.607315,1.4,RTK       ,,,,,,,2021-05-28 11:04:14+00:00,,,,,,,,0002_20210528_105946
0,0,0,0,0,0,0,0,0.0018,0.0164,0.0728,0.1579,0.2602,0.3792,0.346,0.2751,0.1863,0.1577,0.1244,0.1398,0.1561,0.2131,0.3481,0.6074,0.8564,1.1436,1.4411,1.7442,2.0848,2.5141,2.9832,3.3704,3.3056,2.4367,1.0997,0.2689,16.2097,1.1374,11.53,0.075,0.9927,5.11,-5,2021,5,28,11,4,15,5/28/2021,11:04:15 AM,5/28/2021 11:04:15,6.554,143.6,26.6907,46,2501,2724,3300,0,24003,118,0,0.962,1.555,11:04:15 AM,51.27567957,2.607324,1.6,RTK       ,,,,,,,2021-05-28 11:04:15+00:00,,,,,,,,0002_20210528_105946
0,0,0,0,0,0,0,0,0.0032,0.0225,0.0855,0.1711,0.2728,0.3947,0.3819,0.3277,0.2424,0.2135,0.1731,0.1856,0.1976,0.2451,0.3526,0.5508,0.7429,1.0056,1.3699,1.858,2.4339,3.0304,3.5059,3.6848,3.2898,2.3905,1.2158,0.3616,17.7667,1.134,11.52,0.075,0.9927,5.11,-5,2021,5,28,11,4,16,5/28/2021,11:04:16 AM,5/28/2021 11:04:16,6.554,143.14,28.7091,46,2503,2720,3294,0,24003,115,0,0.959,1.676,11:04:16 AM,51.27568368,2.6073335,1.6,RTK       ,,,,,,,2021-05-28 11:04:16+00:00,51.2757765,2.607311,-5.36,0.06,0.06,269.69,,0002_20210528_105946
0,0,0,0,0,0,0,0,0.0037,0.0268,0.0989,0.1853,0.2739,0.3685,0.3338,0.2772,0.2016,0.181,0.1524,0.1763,0.2025,0.2778,0.4467,0.7461,0.9988,1.2662,1.5532,1.887,2.3114,2.9051,3.6933,4.5159,4.755,3.7221,1.7371,0.4398,18.5675,1.132,11.52,0.075,0.9933,5.11,-5,2021,5,28,11,4,17,5/28/2021,11:04:17 AM,5/28/2021 11:04:17,6.554,155.24,33.7374,45,2504,2724,3288,0,24003,104,0,0.957,1.772,11:04:17 AM,51.27568832,2.607342,1.4,RTK       ,,,,,,,2021-05-28 11:04:17+00:00,51.27578233,2.607303,-4.52,0.06,0.06,269.83,,0002_20210528_105946
0,0,0,0,0,0,0,0,0.0047,0.0293,0.1009,0.1884,0.2807,0.3802,0.3569,0.3086,0.2355,0.2154,0.1851,0.2104,0.2372,0.3148,0.4825,0.7827,1.0646,1.3968,1.7774,2.2334,2.8217,3.5985,4.4954,5.2244,5.2447,4.2424,2.4145,0.8028,21.7011,1.1265,11.53,0.075,0.9933,5.13,-5,2021,5,28,11,4,18,5/28/2021,11:04:18 AM,5/28/2021 11:04:18,6.554,159.81,39.6301,45,2500,2728,3309,0,24006,98,0,0.952,1.965,11:04:18 AM,51.27569263,2.60734817,1.2,RTK       ,,,,,,,2021-05-28 11:04:18+00:00,,,,,,,,0002_20210528_105946
0,0,0,0,0,0,0,0,0.0037,0.0253,0.0913,0.1764,0.2716,0.3745,0.3393,0.274,0.1934,0.1699,0.1411,0.1604,0.1812,0.2485,0.4044,0.7055,0.9995,1.2902,1.5126,1.6771,1.844,2.0835,2.4328,2.914,3.2478,2.9559,1.7645,0.4893,15.6002,1.1368,11.52,0.075,0.9921,5.21,-5,2021,5,28,11,4,19,5/28/2021,11:04:19 AM,5/28/2021 11:04:19,6.554,144.63,26.9717,46,2499,2717,3320,0,24019,105,0,0.962,1.556,11:04:19 AM,51.27569737,2.60735417,1.5,RTK       ,,,,,,,2021-05-28 11:04:19+00:00,,,,,,,,0002_20210528_105946
0,0,0,0,0,0,0,0,0.0027,0.0203,0.0842,0.1763,0.2844,0.4063,0.3786,0.3164,0.2296,0.2019,0.1673,0.1876,0.209,0.2785,0.4362,0.7227,0.979,1.2495,1.5169,1.7884,2.1091,2.5753,3.248,4.0973,4.7429,4.4727,2.8311,0.968,17.5682,1.1286,11.53,0.075,0.9921,5.16,-5,2021,5,28,11,4,20,5/28/2021,11:04:20 AM,5/28/2021 11:04:20,6.554,162.21,34.6801,45,2487,2705,3296,0,24011,117,0,0.955,1.845,11:04:20 AM,51.27570357,2.60736183,1.7,RTK       ,,,,,,,2021-05-28 11:04:20+00:00,,,,,,,,0002_20210528_105946
0,0,0,0,0,0,0,0.0013,0.0065,0.0323,0.0991,0.1794,0.2651,0.3507,0.3206,0.2662,0.1992,0.1814,0.1623,0.1916,0.2247,0.3094,0.4837,0.7539,0.9411,1.0736,1.1823,1.3417,1.627,2.1066,2.8054,3.7106,4.5274,4.5895,3.1847,1.3301,15.1051,1.1327,11.53,0.075,0.9927,5.06,-5,2021,5,28,11,4,21,5/28/2021,11:04:21 AM,5/28/2021 11:04:21,6.554,168.46,32.4474,45,2497,2713,3283,0,23995,129,0,0.958,1.724,11:04:21 AM,51.27570973,2.6073705,1.6,RTK       ,,,,,,,2021-05-28 11:04:21+00:00,51.2757985,2.607350833,-5.35,0.06,0.06,269.63,,0002_20210528_105946
0,0,0,0,0,0,0,0,0.0046,0.0291,0.0967,0.1756,0.2618,0.3622,0.344,0.2919,0.2135,0.1867,0.1503,0.1627,0.1747,0.2254,0.3445,0.5566,0.7337,0.8991,1.0363,1.1821,1.4311,1.9461,2.8884,4.3591,5.8668,6.1327,3.9203,1.2168,13.6971,1.134,11.53,0.075,0.9933,5.1,-5,2021,5,28,11,4,22,5/28/2021,11:04:22 AM,5/28/2021 11:04:22,6.554,184.91,35.1928,45,2502,2721,3293,0,24001,101,0,0.958,1.699,11:04:22 AM,51.27571362,2.60737867,1.2,RTK       ,,,,,,,2021-05-28 11:04:22+00:00,51.27580133,2.607358,-4.44,0.06,0.06,269.83,,0002_20210528_105946
0,0,0,0,0,0,0,0,0.0041,0.0253,0.0879,0.1688,0.2586,0.3577,0.3343,0.2786,0.2018,0.1754,0.1446,0.1607,0.1773,0.233,0.3581,0.5806,0.7823,0.9994,1.2348,1.5366,1.998,2.7731,3.9641,5.4311,6.3067,5.5633,3.1849,1.0681,16.8351,1.132,11.52,0.075,0.9921,5.24,-5,2021,5,28,11,4,23,5/28/2021,11:04:23 AM,5/28/2021 11:04:23,6.554,180.1,38.3895,46,2497,2729,3301,0,24023,89,0,0.958,1.725,11:04:23 AM,51.27571597,2.60738667,1.2,RTK       ,,,,,,,2021-05-28 11:04:23+00:00,,,,,,,,0002_20210528_105946
0,0,0,0,0,0,0,0,0.0048,0.0283,0.0964,0.1824,0.2764,0.3765,0.3495,0.2928,0.2167,0.1944,0.1664,0.189,0.2132,0.281,0.4237,0.6596,0.847,1.0334,1.2359,1.5208,1.9997,2.8018,3.9108,4.9316,4.9155,3.4679,1.5386,0.4354,17.3005,1.134,11.53,0.075,0.9927,5.32,-5,2021,5,28,11,4,24,5/28/2021,11:04:24 AM,5/28/2021 11:04:24,6.554,156.9,32.5895,45,2503,2730,3320,0,24036,95,0,0.959,1.676,11:04:24 AM,51.27571893,2.6073955,1.6,RTK       ,,,,,,,2021-05-28 11:04:24+00:00,,,,,,,,0002_20210528_105946
0,0,0,0,0,0,0,0,0.004,0.0263,0.0953,0.1835,0.2776,0.378,0.3575,0.3152,0.2462,0.2275,0.1966,0.2211,0.2468,0.3201,0.4782,0.7652,1.0395,1.3477,1.6582,1.9745,2.319,2.7373,3.2156,3.6767,3.8158,3.2639,1.9541,0.6834,18.6309,1.1292,11.53,0.075,0.9927,5.23,-5,2021,5,28,11,4,25,5/28/2021,11:04:25 AM,5/28/2021 11:04:25,6.554,147.36,32.0248,46,2497,2722,3297,0,24022,99,0,0.955,1.845,11:04:25 AM,51.27572412,2.60740533,1.8,RTK       ,,,,,,,2021-05-28 11:04:25+00:00,,,,,,,,0002_20210528_105946
0,0,0,0,0,0,0,0,0.0023,0.0178,0.0762,0.1647,0.2729,0.3973,0.3752,0.3168,0.2317,0.205,0.1709,0.1922,0.2145,0.2795,0.4164,0.6647,0.9113,1.2407,1.6509,2.1266,2.6419,3.1802,3.7447,4.2577,4.3883,3.6623,2.0603,0.6326,19.4944,1.1313,11.53,0.075,0.9927,5.08,-5,2021,5,28,11,4,26,5/28/2021,11:04:26 AM,5/28/2021 11:04:26,6.554,154.95,34.4957,45,2497,2724,3288,0,23999,101,0,0.957,1.772,11:04:26 AM,51.27573035,2.6074135,1.5,RTK       ,,,,,,,2021-05-28 11:04:26+00:00,51.2758235,2.6073895,-5,0.1,0.1,269.95,,0002_20210528_105946
0,0,0,0,0,0,0,0,0.0021,0.0172,0.0759,0.1655,0.2738,0.3953,0.3683,0.3087,0.2265,0.201,0.1654,0.1792,0.1926,0.2418,0.3502,0.5375,0.694,0.8957,1.1932,1.6547,2.3615,3.3486,4.4374,5.1849,4.9507,3.7733,2.0185,0.6144,18.2861,1.1333,11.52,0.075,0.9933,5.12,-5,2021,5,28,11,4,27,5/28/2021,11:04:27 AM,5/28/2021 11:04:27,6.554,163.91,34.8282,45,2514,2722,3300,0,24005,86,0,0.958,1.723,11:04:27 AM,51.27573583,2.60741933,1.3,RTK       ,,,,,,,2021-05-28 11:04:27+00:00,51.27582433,2.607398333,-4.15,0.1,0.1,269.96,,0002_20210528_105946
0,0,0,0,0,0,0,0,0.0016,0.015,0.0712,0.1568,0.2596,0.3742,0.3437,0.2855,0.2055,0.1809,0.1485,0.1676,0.1876,0.2527,0.4044,0.6915,0.9531,1.2078,1.4297,1.668,2.0361,2.7042,3.8637,5.6222,7.3494,7.2333,4.0188,1.0376,17.6089,1.1272,11.53,0.075,0.9933,5.25,-5,2021,5,28,11,4,28,5/28/2021,11:04:28 AM,5/28/2021 11:04:28,6.554,185.74,42.8701,45,2511,2709,3305,0,24025,91,0,0.953,1.941,11:04:28 AM,51.27574068,2.60742467,1.3,RTK       ,,,,,,,2021-05-28 11:04:28+00:00,51.27582717,2.607408833,-4.39,0.1,0.1,269.95,,0002_20210528_105946
0,0,0,0,0,0,0,0,0.0044,0.0289,0.1014,0.1878,0.2777,0.3701,0.3352,0.2795,0.2078,0.1915,0.167,0.1941,0.2241,0.3031,0.4742,0.7735,1.0275,1.2759,1.4864,1.692,1.9841,2.4651,3.1644,4.0929,5.0111,5.0374,3.2325,1.0684,17.2157,1.1327,11.53,0.075,0.9921,5.36,-5,2021,5,28,11,4,29,5/28/2021,11:04:29 AM,5/28/2021 11:04:29,6.554,167.03,35.6582,45,2504,2723,3313,0,24043,92,0,0.958,1.7,11:04:29 AM,51.27574518,2.60743133,1.4,RTK       ,,,,,,,2021-05-28 11:04:29+00:00,51.27583733,2.607416,-4.56,0.1,0.1,269.94,,0002_20210528_105946
0,0,0,0,0,0,0,0.0011,0.0061,0.0346,0.1074,0.1887,0.2702,0.3546,0.3281,0.2806,0.2143,0.199,0.1754,0.2049,0.2378,0.326,0.5176,0.8453,1.1074,1.322,1.4713,1.6161,1.8423,2.2415,2.8207,3.5255,3.8451,3.1867,1.623,0.4754,16.713,1.1327,11.52,0.075,0.9921,5.34,-5,2021,5,28,11,4,30,5/28/2021,11:04:30 AM,5/28/2021 11:04:30,6.554,145.01,29.3689,46,2498,2717,3311,0,24040,91,0,0.958,1.7,11:04:30 AM,51.27574873,2.6074405,1.6,RTK       ,,,,,,,2021-05-28 11:04:30+00:00,51.27584483,2.6074245,-4.42,0.1,0.1,269.95,,0002_20210528_105946
0,0,0,0,0,0,0,0,0.0021,0.0181,0.0807,0.1738,0.2822,0.4056,0.3812,0.3261,0.2437,0.2227,0.1892,0.2175,0.2485,0.3365,0.5335,0.8834,1.1549,1.3698,1.4909,1.569,1.6909,1.9549,2.4013,2.9841,3.3578,3.0106,1.7531,0.5353,16.1765,1.1333,11.5,0.075,0.9933,5.22,-5,2021,5,28,11,4,31,5/28/2021,11:04:31 AM,5/28/2021 11:04:31,6.554,139.24,27.8172,45,2502,2719,3298,0,24021,103,0,0.958,1.723,11:04:31 AM,51.27575215,2.60745183,1.8,RTK       ,,,,,,,2021-05-28 11:04:31+00:00,51.27584833,2.607434333,-4.76,0.07,0.07,269.78,,0002_20210528_105946
0,0,0,0,0,0,0,0,0.0039,0.0253,0.0907,0.1758,0.2707,0.3736,0.3415,0.2806,0.2019,0.1797,0.1545,0.1808,0.2101,0.294,0.4875,0.8646,1.2464,1.628,1.9097,2.0638,2.1672,2.3624,2.7692,3.4263,4.0647,3.9044,2.3174,0.7589,18.2819,1.134,11.52,0.075,0.9933,5.1,-5,2021,5,28,11,4,32,5/28/2021,11:04:32 AM,5/28/2021 11:04:32,6.554,151.32,32.7537,45,2506,2737,3277,0,24002,97,0,0.958,1.699,11:04:32 AM,51.27575668,2.6074625,1.7,RTK       ,,,,,,,2021-05-28 11:04:32+00:00,51.27585017,2.60744,-5.18,0.07,0.07,269.68,,0002_20210528_105946
0,0,0,0,0,0,0,0,0.0032,0.0229,0.089,0.1744,0.2674,0.3673,0.3433,0.2986,0.231,0.2159,0.1878,0.2109,0.235,0.296,0.4201,0.6237,0.7878,0.9971,1.2898,1.7553,2.5119,3.5891,4.675,5.1368,4.4903,3.1311,1.5771,0.4998,19.5925,1.1354,11.53,0.075,0.9927,5.2,-5,2021,5,28,11,4,33,5/28/2021,11:04:33 AM,5/28/2021 11:04:33,6.554,155.97,34.4276,45,2511,2737,3302,0,24017,85,0,0.96,1.628,11:04:33 AM,51.27576145,2.60747,1.4,RTK       ,,,,,,,2021-05-28 11:04:33+00:00,51.27585467,2.6074495,-5.71,0.07,0.07,269.55,,0002_20210528_105946
0,0,0,0,0,0,0,0,0.0041,0.0265,0.0918,0.1721,0.2626,0.368,0.3502,0.3003,0.2234,0.202,0.1706,0.1947,0.2209,0.2993,0.4736,0.7565,0.9351,1.0332,1.0657,1.1251,1.3373,1.854,2.7635,3.9114,4.459,3.6143,1.7276,0.5113,14.2305,1.1361,11.53,0.075,0.9927,5.4,-5,2021,5,28,11,4,34,5/28/2021,11:04:34 AM,5/28/2021 11:04:34,6.554,154.01,28.4543,46,2510,2718,3315,0,24048,79,0,0.961,1.604,11:04:34 AM,51.27576677,2.60747467,1.3,RTK       ,,,,,,,2021-05-28 11:04:34+00:00,,,,,,,,0002_20210528_105946
0,0,0,0,0,0,0,0,0.0047,0.0272,0.0927,0.178,0.2703,0.3633,0.331,0.2725,0.2002,0.1793,0.1565,0.1825,0.2112,0.2872,0.4497,0.7411,1.022,1.308,1.5364,1.7059,1.8933,2.233,2.8457,3.8904,5.3551,6.6609,5.8731,3.0632,16.4917,1.132,11.53,0.075,0.9921,5.47,-5,2021,5,28,11,4,35,5/28/2021,11:04:35 AM,5/28/2021 11:04:35,6.554,190.85,41.3344,45,2512,2707,3322,0,24060,86,0,0.958,1.725,11:04:35 AM,51.27577218,2.6074795,1.3,RTK       ,,,,,,,2021-05-28 11:04:35+00:00,,,,,,,,0002_20210528_105946
0,0,0,0,0,0,0,0.002,0.0089,0.0399,0.1085,0.1878,0.2698,0.3539,0.3291,0.2785,0.2125,0.1955,0.1748,0.2017,0.2315,0.3115,0.4829,0.7791,1.0441,1.2879,1.4725,1.6304,1.8417,2.1836,2.596,2.8997,2.8149,2.2356,1.2877,0.4829,16.2241,1.1402,11.52,0.075,0.9921,5.38,-5,2021,5,28,11,4,36,5/28/2021,11:04:36 AM,5/28/2021 11:04:36,6.554,134.73,25.9449,45,2519,2711,3318,0,24045,94,0,0.965,1.436,11:04:36 AM,51.27577677,2.60748717,1.6,RTK       ,,,,,,,2021-05-28 11:04:36+00:00,,,,,,,,0002_20210528_105946
0,0,0,0,0,0,0,0.0031,0.0113,0.042,0.1076,0.1855,0.2715,0.3646,0.3559,0.3104,0.2412,0.2176,0.1934,0.2173,0.2426,0.3153,0.4668,0.727,0.9746,1.2036,1.3717,1.479,1.5795,1.7959,2.2657,3.2386,4.7814,6.3582,6.0015,3.5686,14.9431,1.132,11.48,0.075,0.9927,5.19,-5,2021,5,28,11,4,37,5/28/2021,11:04:37 AM,5/28/2021 11:04:37,6.554,189.83,38.8913,45,2505,2717,3293,0,24016,95,0,0.957,1.748,11:04:37 AM,51.27578103,2.607497,1.6,RTK       ,,,,,,,2021-05-28 11:04:37+00:00,,,,,,,,0002_20210528_105946
0,0,0,0,0,0,0,0,0.0035,0.0232,0.0853,0.1678,0.2628,0.3692,0.3448,0.2882,0.2099,0.1869,0.1573,0.1788,0.2016,0.2756,0.4448,0.7555,1.0326,1.2957,1.5177,1.7173,1.964,2.3681,3.0161,3.9623,4.6956,4.2255,2.2763,0.7375,16.8667,1.1347,11.53,0.075,0.9921,5.15,-5,2021,5,28,11,4,38,5/28/2021,11:04:38 AM,5/28/2021 11:04:38,6.554,159.13,32.7638,46,2502,2719,3290,0,24010,96,0,0.96,1.628,11:04:38 AM,51.27578495,2.60750717,1.5,RTK       ,,,,,,,2021-05-28 11:04:38+00:00,51.2758785,2.607486,-4.17,0.06,0.06,269.9,,0002_20210528_105946
0,0,0,0,0,0,0,0.0024,0.0103,0.0442,0.1143,0.19,0.2635,0.3348,0.3066,0.2566,0.1957,0.1814,0.1645,0.1943,0.2282,0.3157,0.5023,0.8143,1.065,1.2553,1.37,1.4688,1.6375,1.9702,2.4695,3.0392,3.2855,2.8403,1.7475,0.7775,15.3554,1.1395,11.52,0.075,0.9927,5.2,-5,2021,5,28,11,4,39,5/28/2021,11:04:39 AM,5/28/2021 11:04:39,6.554,144.36,27.0453,45,2520,2729,3301,0,24018,94,0,0.964,1.483,11:04:39 AM,51.27578903,2.6075165,1.5,RTK       ,,,,,,,2021-05-28 11:04:39+00:00,51.27588333,2.607493167,-4.91,0.06,0.06,269.71,,0002_20210528_105946
0,0,0,0,0,0,0,0,0.0026,0.0185,0.0752,0.158,0.2572,0.3692,0.346,0.2846,0.2015,0.1707,0.1362,0.1488,0.1611,0.2107,0.3251,0.5476,0.7873,1.0918,1.46,1.8995,2.376,2.8507,3.2738,3.6204,3.6079,2.9733,1.7352,0.5782,17.1521,1.1388,11.53,0.075,0.9927,5.26,-5,2021,5,28,11,4,40,5/28/2021,11:04:40 AM,5/28/2021 11:04:40,6.554,152.85,29.667,46,2524,2741,3303,0,24026,85,0,0.963,1.507,11:04:40 AM,51.2757938,2.607524,1.3,RTK       ,,,,,,,2021-05-28 11:04:40+00:00,,,,,,,,0002_20210528_105946
0,0,0,0,0,0,0,0,0.0034,0.0234,0.0857,0.1707,0.2672,0.3758,0.3488,0.2873,0.2059,0.1813,0.1505,0.171,0.1931,0.2635,0.4235,0.7131,0.9644,1.2127,1.4383,1.6586,1.9133,2.232,2.5979,2.8943,2.8751,2.3187,1.248,0.369,15.8814,1.1361,11.52,0.075,0.9927,5.26,-5,2021,5,28,11,4,41,5/28/2021,11:04:41 AM,5/28/2021 11:04:41,6.554,137.13,25.5865,46,2501,2733,3306,0,24026,93,0,0.961,1.604,11:04:41 AM,51.27579838,2.60752917,1.2,RTK       ,,,,,,,2021-05-28 11:04:41+00:00,,,,,,,,0002_20210528_105946
0,0,0,0,0,0,0,0,0.004,0.0264,0.0909,0.173,0.265,0.3721,0.3529,0.3016,0.2258,0.2075,0.1781,0.2037,0.2315,0.3093,0.4774,0.747,0.9187,1.0466,1.1481,1.2814,1.5135,1.9306,2.6021,3.5561,4.526,4.6812,3.0488,0.9428,14.6072,1.132,11.53,0.075,0.9933,5.34,-5,2021,5,28,11,4,42,5/28/2021,11:04:42 AM,5/28/2021 11:04:42,6.554,164.73,31.3619,45,2503,2710,3331,0,24040,96,0,0.957,1.772,11:04:42 AM,51.27580302,2.607535,1.5,RTK       ,,,,,,,2021-05-28 11:04:42+00:00,,,,,,,,0002_20210528_105946
0,0,0,0,0,0,0,0,0.0042,0.026,0.089,0.171,0.2629,0.3652,0.3411,0.284,0.207,0.1843,0.1563,0.1789,0.2033,0.2762,0.4385,0.7274,0.9776,1.2121,1.4071,1.6009,1.8881,2.3885,3.1856,4.1833,4.718,3.9142,1.9507,0.5549,16.5752,1.1333,11.52,0.075,0.9927,5.34,-5,2021,5,28,11,4,43,5/28/2021,11:04:43 AM,5/28/2021 11:04:43,6.554,157.5,31.8963,46,2500,2706,3298,0,24040,102,0,0.958,1.7,11:04:43 AM,51.27580928,2.6075435,2,RTK       ,,,,,,,2021-05-28 11:04:43+00:00,51.27590583,2.607523167,-5.93,0.06,0.06,269.38,,0002_20210528_105946
0,0,0,0,0,0,0,0.0014,0.0069,0.0344,0.1009,0.1807,0.2671,0.3596,0.3395,0.2874,0.2149,0.1924,0.1647,0.185,0.2066,0.2736,0.4184,0.6746,0.9119,1.1509,1.3409,1.458,1.545,1.7146,2.0884,2.7487,3.4316,3.4566,2.2825,0.9245,14.1178,1.1347,11.53,0.075,0.9933,5.13,-5,2021,5,28,11,4,44,5/28/2021,11:04:44 AM,5/28/2021 11:04:44,6.554,151.45,26.9619,45,2490,2729,3272,0,24007,101,0,0.959,1.675,11:04:44 AM,51.2758154,2.60755267,1.6,RTK       ,,,,,,,2021-05-28 11:04:44+00:00,51.27591433,2.607537833,-9.52,0.06,0.06,268.07,,0002_20210528_105946
0,0,0,0,0,0,0,0,0.0033,0.0219,0.0804,0.1615,0.2562,0.3627,0.3408,0.285,0.2081,0.1851,0.1562,0.1767,0.1983,0.2635,0.4043,0.6421,0.8337,1.0317,1.2565,1.5582,1.9963,2.6295,3.423,4.2741,4.7112,4.3057,2.664,0.8383,16.475,1.1354,11.51,0.075,0.9933,5.15,-5,2021,5,28,11,4,45,5/28/2021,11:04:45 AM,5/28/2021 11:04:45,6.554,166.34,33.2683,46,2519,2730,3302,0,24009,88,0,0.96,1.651,11:04:45 AM,51.27581877,2.60756067,1.2,RTK       ,,,,,,,2021-05-28 11:04:45+00:00,,,,,,,,0002_20210528_105946
0,0,0,0,0,0,0,0,0.0042,0.0258,0.0925,0.1781,0.2689,0.3557,0.3161,0.256,0.1864,0.1669,0.1458,0.1713,0.1999,0.2727,0.4273,0.6928,0.923,1.1428,1.3411,1.5612,1.8928,2.4776,3.4063,4.5958,5.2778,4.7198,2.8445,1.0366,16.5052,1.132,11.52,0.075,0.9927,5.32,-5,2021,5,28,11,4,46,5/28/2021,11:04:46 AM,5/28/2021 11:04:46,6.554,170.43,34.9798,45,2522,2730,3322,0,24036,75,0,0.957,1.748,11:04:46 AM,51.27582065,2.60756833,1.2,RTK       ,,,,,,,2021-05-28 11:04:46+00:00,,,,,,,,0002_20210528_105946
0,0,0,0,0,0,0,0,0.0054,0.0328,0.1052,0.1874,0.2689,0.3544,0.3271,0.2845,0.2233,0.2152,0.1937,0.2238,0.2568,0.3415,0.5254,0.8501,1.1256,1.3921,1.6119,1.8146,2.0841,2.5231,3.1212,3.8204,4.2217,3.7177,2.0998,0.6799,18.0681,1.1327,11.52,0.075,0.9921,5.35,-5,2021,5,28,11,4,47,5/28/2021,11:04:47 AM,5/28/2021 11:04:47,6.554,150.97,32.6076,46,2505,2728,3316,0,24041,95,0,0.958,1.7,11:04:47 AM,51.27582438,2.6075765,1.6,RTK       ,,,,,,,2021-05-28 11:04:47+00:00,,,,,,,,0002_20210528_105946
0,0,0,0,0,0,0,0.0017,0.0085,0.0421,0.1178,0.1948,0.2726,0.3589,0.3426,0.3027,0.2374,0.2218,0.1943,0.2201,0.2478,0.3283,0.5033,0.806,1.0656,1.3266,1.5778,1.8427,2.1727,2.6171,3.0861,3.364,3.1081,2.2687,1.161,0.3712,18.0893,1.132,11.52,0.075,0.9921,5.27,-5,2021,5,28,11,4,48,5/28/2021,11:04:48 AM,5/28/2021 11:04:48,6.554,134.85,28.3622,45,2499,2719,3295,0,24028,92,0,0.958,1.725,11:04:48 AM,51.27583048,2.607585,1.7,RTK       ,,,,,,,2021-05-28 11:04:48+00:00,51.27592133,2.607567667,-4.15,0.06,0.06,269.89,,0002_20210528_105946
0,0,0,0,0,0,0,0.0018,0.0091,0.0437,0.1194,0.1969,0.2725,0.3519,0.3268,0.2789,0.2119,0.194,0.1688,0.1915,0.2157,0.2874,0.4461,0.7324,1.0056,1.3048,1.61,1.9447,2.3669,2.92,3.4851,3.8679,3.7763,3.1189,1.8899,0.7275,18.6859,1.1313,11.52,0.075,0.9921,5.23,-5,2021,5,28,11,4,49,5/28/2021,11:04:49 AM,5/28/2021 11:04:49,6.554,149.75,32.0667,45,2515,2722,3303,0,24022,93,0,0.957,1.749,11:04:49 AM,51.27583657,2.60759167,1.5,RTK       ,,,,,,,2021-05-28 11:04:49+00:00,51.27593117,2.607572,-4.74,0.06,0.06,269.77,,0002_20210528_105946
0,0,0,0,0,0,0,0,0.0021,0.0177,0.0768,0.1613,0.262,0.38,0.3553,0.2967,0.2123,0.1869,0.1527,0.1723,0.1929,0.262,0.426,0.7417,1.0363,1.3395,1.6309,1.9411,2.3269,2.8521,3.5097,4.2596,4.6656,4.2125,2.5765,0.892,18.5352,1.1347,11.51,0.075,0.9921,5.21,-5,2021,5,28,11,4,50,5/28/2021,11:04:50 AM,5/28/2021 11:04:50,6.554,161.43,35.1412,45,2510,2722,3301,0,24019,94,0,0.96,1.628,11:04:50 AM,51.27584207,2.60759733,1.4,RTK       ,,,,,,,2021-05-28 11:04:50+00:00,,,,,,,,0002_20210528_105946
0,0,0,0,0,0,0,0,0.0052,0.0302,0.1008,0.191,0.2855,0.3816,0.3476,0.2842,0.2054,0.1792,0.15,0.1678,0.1863,0.2471,0.3841,0.6433,0.915,1.2445,1.6091,1.9938,2.4039,2.8542,3.3258,3.7572,4.0274,3.8812,2.7441,1.1189,18.1356,1.1327,11.52,0.075,0.9921,5.22,-5,2021,5,28,11,4,51,5/28/2021,11:04:51 AM,5/28/2021 11:04:51,6.554,160.09,33.6648,45,2507,2713,3302,0,24021,90,0,0.958,1.7,11:04:51 AM,51.27584727,2.60760367,1.3,RTK       ,,,,,,,2021-05-28 11:04:51+00:00,,,,,,,,0002_20210528_105946
0,0,0,0,0,0,0,0,0.0039,0.0254,0.0892,0.1699,0.2593,0.3563,0.3271,0.2706,0.197,0.1773,0.1517,0.176,0.2028,0.2752,0.43,0.6869,0.8847,1.0834,1.296,1.5462,1.8618,2.3258,3.01,3.9988,4.9978,5.0233,3.17,1.0916,15.8065,1.134,11.53,0.075,0.9921,5.28,-5,2021,5,28,11,4,52,5/28/2021,11:04:52 AM,5/28/2021 11:04:52,6.554,171.37,34.088,45,2508,2726,3307,0,24030,86,0,0.96,1.652,11:04:52 AM,51.27585137,2.6076115,1.4,RTK       ,,,,,,,2021-05-28 11:04:52+00:00,,,,,,,,0002_20210528_105946
0,0,0,0,0,0,0,0,0.0022,0.0178,0.0773,0.1625,0.2609,0.3706,0.3448,0.2915,0.2138,0.1908,0.1606,0.1848,0.2109,0.2879,0.46,0.7661,1.0311,1.3134,1.6342,2.0527,2.6734,3.649,5.0594,6.6678,7.5027,6.2791,3.3068,0.9721,21.4157,1.1251,11.52,0.075,0.9921,5.31,-5,2021,5,28,11,4,53,5/28/2021,11:04:53 AM,5/28/2021 11:04:53,6.554,178.31,46.1442,46,2501,2716,3306,0,24034,100,0,0.952,1.967,11:04:53 AM,51.27585412,2.60762033,1.4,RTK       ,,,,,,,2021-05-28 11:04:53+00:00,51.27590583,2.6076535,-4.36,0.06,0.06,269.86,,0002_20210528_105946
0,0,0,0,0,0,0,0,0.0025,0.0197,0.0828,0.1744,0.2804,0.396,0.3656,0.3071,0.2271,0.2061,0.1771,0.2054,0.2365,0.321,0.5027,0.8203,1.0865,1.3428,1.5559,1.7443,1.9875,2.413,3.1699,4.4376,6.0627,6.9152,5.0755,1.8548,17.6246,1.1272,11.53,0.075,0.9927,5.29,-5,2021,5,28,11,4,54,5/28/2021,11:04:54 AM,5/28/2021 11:04:54,6.554,182.28,41.9704,45,2501,2720,3307,0,24032,93,0,0.953,1.917,11:04:54 AM,51.27585738,2.60763,1.6,RTK       ,,,,,,,2021-05-28 11:04:54+00:00,,,,,,,,0002_20210528_105946
0,0,0,0,0,0,0,0.001,0.0058,0.032,0.1018,0.1825,0.2672,0.356,0.3334,0.2906,0.2272,0.215,0.1943,0.2276,0.2649,0.3532,0.5298,0.8079,1.0131,1.1987,1.3643,1.5547,1.8511,2.372,3.2101,4.423,5.5298,5.5224,3.5564,1.2576,16.9542,1.1333,11.53,0.075,0.9927,5.19,-5,2021,5,28,11,4,55,5/28/2021,11:04:55 AM,5/28/2021 11:04:55,6.554,171.34,37.2434,45,2508,2727,3291,0,24015,88,0,0.958,1.7,11:04:55 AM,51.2758628,2.607639,1.7,RTK       ,,,,,,,2021-05-28 11:04:55+00:00,,,,,,,,0002_20210528_105946
0,0,0,0,0,0,0,0,0.0036,0.0232,0.0862,0.1712,0.2678,0.3737,0.3535,0.3052,0.2333,0.2153,0.1903,0.2229,0.2592,0.3482,0.5283,0.8172,1.0362,1.2325,1.3993,1.5807,1.8666,2.3692,3.192,4.3196,5.3847,5.6279,4.0899,1.6496,17.0756,1.1279,11.52,0.075,0.9927,5.14,-5,2021,5,28,11,4,56,5/28/2021,11:04:56 AM,5/28/2021 11:04:56,6.554,174.46,38.1473,45,2501,2725,3280,0,24008,96,0,0.954,1.893,11:04:56 AM,51.27586908,2.6076455,1.5,RTK       ,,,,,,,2021-05-28 11:04:56+00:00,,,,,,,,0002_20210528_105946
0,0,0,0,0,0,0,0,0.0031,0.0221,0.0856,0.1728,0.272,0.378,0.3426,0.2759,0.1925,0.1651,0.1348,0.153,0.1722,0.2392,0.3978,0.6992,0.9832,1.2593,1.5082,1.7732,2.138,2.7323,3.6942,5.1778,6.8093,7.4464,5.4227,1.9122,17.7943,1.1258,11.52,0.075,0.9916,5.3,-5,2021,5,28,11,4,57,5/28/2021,11:04:57 AM,5/28/2021 11:04:57,6.554,191.62,44.563,45,2508,2722,3308,0,24033,91,0,0.953,1.919,11:04:57 AM,51.27587472,2.60765,1.2,RTK       ,,,,,,,2021-05-28 11:04:57+00:00,51.27597233,2.607626667,-5.25,0.06,0.06,269.7,,0002_20210528_105946
0,0,0,0,0,0,0,0,0.0045,0.0261,0.0885,0.1719,0.2627,0.3569,0.3307,0.279,0.2106,0.1923,0.1688,0.1932,0.2197,0.29,0.4362,0.6723,0.8474,0.9922,1.1015,1.2155,1.4265,1.8832,2.732,4.0409,5.3778,5.8335,4.1591,1.7244,14.1017,1.1354,11.53,0.075,0.9921,5.41,-5,2021,5,28,11,4,58,5/28/2021,11:04:58 AM,5/28/2021 11:04:58,6.554,182.75,35.2373,46,2508,2706,3317,0,24050,91,0,0.961,1.604,11:04:58 AM,51.27587933,2.60765467,1.3,RTK       ,,,,,,,2021-05-28 11:04:58+00:00,51.27596683,2.607639167,-5,0.07,0.07,269.79,,0002_20210528_105946
0,0,0,0,0,0,0,0.0012,0.0062,0.0318,0.0972,0.1791,0.2713,0.3767,0.3692,0.3239,0.2472,0.22,0.1837,0.2009,0.218,0.2846,0.433,0.7001,0.9539,1.2382,1.5443,1.8777,2.2658,2.7414,3.2568,3.6211,3.5,2.6994,1.4479,0.5043,18.0222,1.134,11.53,0.075,0.9921,5.4,-5,2021,5,28,11,4,59,5/28/2021,11:04:59 AM,5/28/2021 11:04:59,6.554,142.83,29.795,45,2509,2704,3317,0,24049,91,0,0.96,1.652,11:04:59 AM,51.27588392,2.60766233,1.5,RTK       ,,,,,,,2021-05-28 11:04:59+00:00,,,,,,,,0002_20210528_105946
0,0,0,0,0,0,0,0,0.0037,0.0253,0.0927,0.1802,0.2789,0.3918,0.3726,0.3241,0.2474,0.2286,0.1971,0.2233,0.251,0.3295,0.5004,0.8038,1.0737,1.384,1.7409,2.1683,2.7217,3.4447,4.247,4.8655,4.8435,3.8361,2.0477,0.6271,21.2307,1.1265,11.52,0.075,0.9927,5.31,-5,2021,5,28,11,5,0,5/28/2021,11:05:00 AM,5/28/2021 11:05:00,6.554,154.22,37.4504,45,2508,2719,3297,0,24035,85,0,0.953,1.942,11:05:00 AM,51.2758884,2.60767183,1.5,RTK       ,,,,,,,2021-05-28 11:05:00+00:00,,,,,,,,
0,0,0,0,0,0,0,0,0.0036,0.0246,0.0898,0.1748,0.2675,0.3687,0.3427,0.2896,0.2145,0.194,0.1659,0.1907,0.2176,0.295,0.4683,0.7854,1.0679,1.3209,1.4723,1.5365,1.6434,1.9973,2.8624,4.5392,6.6419,7.3829,4.8334,1.4446,15.9934,1.1286,11.52,0.075,0.9927,5.31,-5,2021,5,28,11,5,1,5/28/2021,11:05:01 AM,5/28/2021 11:05:01,6.554,185.32,40.8357,45,2518,2728,3309,0,24034,91,0,0.954,1.869,11:05:01 AM,51.2758923,2.60768133,1.5,RTK       ,,,,,,,2021-05-28 11:05:01+00:00,,,,,,,,
0,0,0,0,0,0,0,0,0.0026,0.0201,0.0809,0.1629,0.2562,0.3564,0.3197,0.2536,0.1736,0.1472,0.1183,0.1349,0.1526,0.2154,0.3687,0.6745,0.9833,1.2887,1.5265,1.7178,1.942,2.3179,2.944,3.9076,4.91,4.9129,3.0832,0.8541,16.1578,1.134,11.53,0.075,0.9921,5.3,-5,2021,5,28,11,5,2,5/28/2021,11:05:02 AM,5/28/2021 11:05:02,6.554,170.13,33.8254,46,2528,2731,3317,0,24033,87,0,0.96,1.652,11:05:02 AM,51.2758964,2.60769,1.5,RTK       ,,,,,,,2021-05-28 11:05:02+00:00,51.2759885,2.607673333,-4.55,0.06,0.06,269.83,,
0,0,0,0,0,0,0,0,0.0049,0.0286,0.0963,0.1802,0.2713,0.3695,0.3489,0.3024,0.2308,0.2102,0.1803,0.204,0.229,0.3065,0.475,0.77,1.0279,1.2816,1.5141,1.7749,2.1855,2.9064,4.0172,5.3298,6.0311,5.1767,2.933,0.9269,18.9155,1.1286,11.53,0.075,0.9921,5.26,-5,2021,5,28,11,5,3,5/28/2021,11:05:03 AM,5/28/2021 11:05:03,6.554,169.08,39.3131,46,2520,2724,3299,0,24026,93,0,0.955,1.845,11:05:03 AM,51.27590142,2.60769767,1.5,RTK       ,,,,,,,2021-05-28 11:05:03+00:00,51.275994,2.607679833,-4.75,0.06,0.06,269.78,,
0,0,0,0,0,0,0,0,0.0026,0.0193,0.0791,0.1664,0.2678,0.3758,0.343,0.2806,0.2007,0.1753,0.1454,0.1637,0.1829,0.2429,0.375,0.6135,0.8347,1.0903,1.3811,1.74,2.2344,2.9858,4.0585,5.2804,5.8431,4.7922,2.4324,0.6866,17.9588,1.134,11.53,0.075,0.9921,5.32,-5,2021,5,28,11,5,4,5/28/2021,11:05:04 AM,5/28/2021 11:05:04,6.554,170.36,36.9935,45,2513,2728,3302,0,24036,85,0,0.96,1.652,11:05:04 AM,51.27590637,2.607704,1.3,RTK       ,,,,,,,2021-05-28 11:05:04+00:00,51.275999,2.607688167,-4.81,0.06,0.06,269.77,,
0,0,0,0,0,0,0,0,0.0047,0.028,0.0949,0.1786,0.2691,0.3638,0.3344,0.2789,0.2064,0.1855,0.159,0.1817,0.2061,0.2754,0.4234,0.6696,0.8689,1.0754,1.3091,1.6258,2.0924,2.7992,3.7922,5.1215,6.292,6.0508,3.631,1.1765,17.4225,1.1306,11.53,0.075,0.9921,5.32,-5,2021,5,28,11,5,5,5/28/2021,11:05:05 AM,5/28/2021 11:05:05,6.554,179.57,39.6947,45,2506,2721,3311,0,24036,86,0,0.957,1.773,11:05:05 AM,51.27591078,2.60770983,1.2,RTK       ,,,,,,,2021-05-28 11:05:05+00:00,51.2760035,2.607694,-4.09,0.06,0.06,269.91,,
0,0,0,0,0,0,0,0,0.0031,0.0224,0.087,0.1741,0.2747,0.3895,0.3666,0.3108,0.2284,0.2033,0.169,0.1895,0.211,0.2818,0.4424,0.7393,1.0146,1.3029,1.5788,1.8837,2.3076,2.9424,3.7595,4.5367,4.6648,3.6596,1.8416,0.4978,18.8824,1.1299,11.52,0.075,0.9916,5.38,-5,2021,5,28,11,5,6,5/28/2021,11:05:06 AM,5/28/2021 11:05:06,6.554,154.14,34.0828,46,2510,2715,3318,0,24046,94,0,0.957,1.773,11:05:06 AM,51.27591545,2.60771633,1.5,RTK       ,,,,,,,2021-05-28 11:05:06+00:00,,,,,,,,
0,0,0,0,0,0,0,0.002,0.0097,0.0451,0.1232,0.2002,0.2722,0.3415,0.3122,0.267,0.2071,0.1932,0.1735,0.201,0.2312,0.3101,0.4788,0.7754,1.0496,1.3266,1.579,1.824,2.0952,2.4481,2.9302,3.5858,4.1994,4.2075,3.0327,1.396,17.3961,1.1327,11.53,0.075,0.9921,5.38,-5,2021,5,28,11,5,7,5/28/2021,11:05:07 AM,5/28/2021 11:05:07,6.554,161.21,33.8179,45,2517,2712,3310,0,24045,99,0,0.958,1.7,11:05:07 AM,51.27592082,2.60772433,1.7,RTK       ,,,,,,,2021-05-28 11:05:07+00:00,,,,,,,,
0,0,0,0,0,0,0,0,0.0045,0.029,0.0971,0.1772,0.2644,0.3725,0.3646,0.3181,0.2363,0.2091,0.1707,0.1886,0.2072,0.2729,0.4253,0.6948,0.9145,1.1041,1.2342,1.342,1.4901,1.7587,2.1456,2.5939,2.724,2.152,1.0454,0.2984,14.0215,1.1368,11.52,0.075,0.9921,5.22,-5,2021,5,28,11,5,8,5/28/2021,11:05:08 AM,5/28/2021 11:05:08,6.554,130.7,22.8353,45,2516,2723,3298,0,24021,108,0,0.962,1.556,11:05:08 AM,51.27592628,2.607733,1.7,RTK       ,,,,,,,2021-05-28 11:05:08+00:00,,,,,,,,
0,0,0,0,0,0,0,0.0034,0.0138,0.0545,0.1289,0.1926,0.2539,0.318,0.2989,0.2619,0.2055,0.1927,0.1721,0.1945,0.2182,0.2907,0.452,0.752,1.0545,1.3786,1.6828,1.9764,2.3406,2.9203,3.8095,4.9127,5.52,4.8287,2.8816,1.0875,19.1663,1.1306,11.53,0.075,0.9927,5.15,-5,2021,5,28,11,5,9,5/28/2021,11:05:09 AM,5/28/2021 11:05:09,6.554,167.13,38.397,45,2514,2727,3297,0,24009,97,0,0.956,1.796,11:05:09 AM,51.27593075,2.60774183,1.5,RTK       ,,,,,,,2021-05-28 11:05:09+00:00,51.27602133,2.607724167,-4.34,0.06,0.06,269.86,,
0,0,0,0,0,0,0,0.0013,0.0066,0.033,0.0998,0.1806,0.2636,0.3447,0.3184,0.2764,0.2197,0.2112,0.1972,0.2293,0.2645,0.3405,0.4871,0.7413,0.9988,1.3539,1.7974,2.2711,2.724,3.2494,4.0587,5.3218,6.8909,7.7842,6.2634,2.7496,20.6685,1.1272,11.52,0.075,0.9916,5.2,-5,2021,5,28,11,5,10,5/28/2021,11:05:10 AM,5/28/2021 11:05:10,6.554,191.25,49.6785,45,2513,2726,3305,0,24017,99,0,0.954,1.87,11:05:10 AM,51.27593347,2.60775067,1.2,RTK       ,,,,,,,2021-05-28 11:05:10+00:00,51.27602483,2.607735667,-5.21,0.07,0.07,269.75,,
0,0,0,0,0,0,0.0012,0.004,0.0158,0.0594,0.1291,0.1855,0.2432,0.3136,0.3087,0.2783,0.22,0.2055,0.18,0.2004,0.2214,0.2873,0.4314,0.6761,0.8837,1.0929,1.3099,1.5884,1.9956,2.5959,3.2893,3.9164,4.0546,3.3789,1.905,0.7043,16.7166,1.1381,11.52,0.075,0.9921,5.31,-5,2021,5,28,11,5,11,5/28/2021,11:05:11 AM,5/28/2021 11:05:11,6.554,153.96,30.6759,45,2511,2723,3318,0,24035,93,0,0.963,1.508,11:05:11 AM,51.27593595,2.60775817,1.2,RTK       ,,,,,,,2021-05-28 11:05:11+00:00,,,,,,,,
0,0,0,0,0,0,0,0,0.0031,0.0221,0.0828,0.1658,0.2587,0.3622,0.3355,0.278,0.2017,0.1806,0.1532,0.1782,0.2062,0.2851,0.4595,0.746,0.9329,1.0507,1.1217,1.22,1.4213,1.7928,2.371,3.1254,3.6933,3.4862,2.1178,0.6735,13.8291,1.1333,11.52,0.075,0.9921,5.33,-5,2021,5,28,11,5,12,5/28/2021,11:05:12 AM,5/28/2021 11:05:12,6.554,153.43,26.9254,45,2507,2720,3320,0,24038,109,0,0.959,1.676,11:05:12 AM,51.27594023,2.607766,1.6,RTK       ,,,,,,,2021-05-28 11:05:12+00:00,,,,,,,,
0,0,0,0,0,0,0,0,0.0041,0.0262,0.0918,0.1736,0.2686,0.3785,0.3577,0.2994,0.217,0.1921,0.1609,0.1835,0.2079,0.2819,0.4446,0.7234,0.946,1.1422,1.2933,1.43,1.6234,1.9789,2.6011,3.5025,4.2448,3.9399,2.2242,0.6343,15.0261,1.1347,11.53,0.075,0.9921,5.12,-5,2021,5,28,11,5,13,5/28/2021,11:05:13 AM,5/28/2021 11:05:13,6.554,155.73,29.5718,46,2493,2712,3284,0,24004,109,0,0.96,1.628,11:05:13 AM,51.27594603,2.6077755,1.8,RTK       ,,,,,,,2021-05-28 11:05:13+00:00,,,,,,,,
0,0,0,0,0,0,0,0,0.0024,0.0177,0.0712,0.1533,0.254,0.3702,0.3458,0.2809,0.1963,0.1662,0.1314,0.1414,0.1511,0.1931,0.2881,0.4669,0.6494,0.8963,1.1999,1.529,1.8616,2.2399,2.6465,2.8975,2.6877,2.014,1.0854,0.3238,14.2526,1.1381,11.52,0.075,0.9921,4.94,-5,2021,5,28,11,5,14,5/28/2021,11:05:14 AM,5/28/2021 11:05:14,6.554,140.88,23.2609,45,2486,2719,3268,0,23977,124,0,0.963,1.508,11:05:14 AM,51.2759514,2.607784,1.4,RTK       ,,,,,,,2021-05-28 11:05:14+00:00,51.27603917,2.607772667,-4.13,0.07,0.07,269.93,,
0,0,0,0,0,0,0,0,0.0025,0.0196,0.0786,0.1589,0.253,0.3676,0.3502,0.2957,0.2125,0.1858,0.15,0.1676,0.186,0.2463,0.382,0.6201,0.8163,1.0323,1.274,1.5663,1.9632,2.5697,3.3337,3.914,3.6956,2.6112,1.1801,0.2879,16.2319,1.1368,11.53,0.075,0.9921,5.12,-5,2021,5,28,11,5,15,5/28/2021,11:05:15 AM,5/28/2021 11:05:15,6.554,147.18,27.9208,45,2511,2711,3307,0,24005,105,0,0.962,1.556,11:05:15 AM,51.27595565,2.60778983,1.1,RTK       ,,,,,,,2021-05-28 11:05:15+00:00,51.27604633,2.6077815,-4.6,0.07,0.07,269.87,,
0,0,0,0,0,0,0,0,0.0038,0.0227,0.0782,0.1552,0.2484,0.3584,0.3449,0.2889,0.2089,0.181,0.1476,0.1597,0.1716,0.2162,0.3121,0.4773,0.6239,0.7943,0.9775,1.1894,1.488,1.9473,2.614,3.4328,4.0351,3.8001,2.2999,0.725,13.0093,1.1368,11.53,0.075,0.9921,5.4,-5,2021,5,28,11,5,16,5/28/2021,11:05:16 AM,5/28/2021 11:05:16,6.554,164.38,27.3022,45,2513,2705,3322,0,24048,91,0,0.962,1.556,11:05:16 AM,51.2759591,2.60779583,1.2,RTK       ,,,,,,,2021-05-28 11:05:16+00:00,51.27605233,2.607794667,-4.57,0.07,0.07,269.88,,
0,0,0,0,0,0,0,0,0.0038,0.0261,0.0951,0.1811,0.2721,0.3684,0.3394,0.2867,0.2146,0.196,0.1689,0.1952,0.2242,0.3031,0.4748,0.7833,1.0622,1.3471,1.5759,1.7103,1.7584,1.7882,1.8479,1.9946,2.097,1.8482,1.0722,0.3393,15.2228,1.1395,11.53,0.075,0.9921,5.32,-5,2021,5,28,11,5,17,5/28/2021,11:05:17 AM,5/28/2021 11:05:17,6.554,122.88,22.5741,45,2497,2706,3313,0,24036,106,0,0.964,1.46,11:05:17 AM,51.27596218,2.607805,1.6,RTK       ,,,,,,,2021-05-28 11:05:17+00:00,,,,,,,,
0,0,0,0,0,0,0,0.0018,0.0082,0.0375,0.1028,0.1816,0.2679,0.364,0.349,0.2961,0.2212,0.1971,0.1679,0.1882,0.2098,0.2798,0.4324,0.6959,0.9283,1.1576,1.3597,1.5466,1.7358,1.9449,2.129,2.2291,2.1232,1.7141,1.0403,0.41,14.8031,1.1374,11.52,0.075,0.9921,5.08,-5,2021,5,28,11,5,18,5/28/2021,11:05:18 AM,5/28/2021 11:05:18,6.554,125.65,22.3195,46,2486,2714,3287,0,23999,107,0,0.962,1.532,11:05:18 AM,51.27596562,2.60781683,1.9,RTK       ,,,,,,,2021-05-28 11:05:18+00:00,51.2760605,2.607812333,-5.06,0.07,0.07,269.72,,
0,0,0,0,0,0,0,0,0.0043,0.0249,0.0855,0.169,0.2657,0.3682,0.3411,0.2812,0.2057,0.1828,0.1577,0.1804,0.2052,0.2706,0.4029,0.6097,0.7664,0.9163,1.0746,1.3011,1.676,2.2627,2.9958,3.6515,3.7244,2.8215,1.4004,0.4454,14.7478,1.1381,11.53,0.075,0.9927,5.02,-5,2021,5,28,11,5,19,5/28/2021,11:05:19 AM,5/28/2021 11:05:19,6.554,149.54,26.7908,45,2500,2733,3284,0,23989,102,0,0.962,1.531,11:05:19 AM,51.27596935,2.60782783,1.5,RTK       ,,,,,,,2021-05-28 11:05:19+00:00,,,,,,,,
0,0,0,0,0,0,0,0,0.0043,0.0263,0.0904,0.1707,0.2604,0.3578,0.3312,0.2732,0.1968,0.1711,0.1401,0.1542,0.1685,0.2195,0.334,0.5406,0.7359,0.9765,1.288,1.7183,2.3053,3.0208,3.6084,3.5173,2.4329,1.1219,0.3471,0.0862,17.0923,1.1381,11.53,0.075,0.9933,5.16,-5,2021,5,28,11,5,20,5/28/2021,11:05:20 AM,5/28/2021 11:05:20,6.554,131.98,24.5973,46,2516,2727,3303,0,24011,101,0,0.962,1.555,11:05:20 AM,51.27597283,2.60783633,1.2,RTK       ,,,,,,,2021-05-28 11:05:20+00:00,,,,,,,,
0,0,0,0,0,0,0.0011,0.0035,0.0137,0.052,0.1187,0.1843,0.2537,0.3288,0.31,0.2606,0.1956,0.1772,0.1539,0.1725,0.1924,0.2548,0.3914,0.6292,0.8412,1.0427,1.1956,1.2805,1.3077,1.3264,1.3823,1.5185,1.6821,1.7169,1.3307,0.6169,12.0698,1.1368,11.52,0.075,0.9927,5.29,-5,2021,5,28,11,5,21,5/28/2021,11:05:21 AM,5/28/2021 11:05:21,6.554,124.5,18.9349,45,2508,2725,3312,0,24032,89,0,0.961,1.58,11:05:21 AM,51.27597617,2.607843,1.2,RTK       ,,,,,,,2021-05-28 11:05:21+00:00,,,,,,,,
0,0,0,0,0,0,0,0,0.0041,0.027,0.0941,0.1733,0.2605,0.3626,0.3468,0.2993,0.2236,0.2032,0.1729,0.1995,0.2287,0.3109,0.4933,0.8023,1.0342,1.2345,1.4144,1.6382,1.9575,2.3816,2.7613,2.9192,2.6602,1.9945,1.0716,0.3546,16.6238,1.1368,11.53,0.075,0.9921,5.3,-5,2021,5,28,11,5,22,5/28/2021,11:05:22 AM,5/28/2021 11:05:22,6.554,132.02,25.6239,45,2503,2713,3316,0,24033,98,0,0.962,1.556,11:05:22 AM,51.27598017,2.60784983,1.4,RTK       ,,,,,,,2021-05-28 11:05:22+00:00,51.27607617,2.6078525,-4.3,0.08,0.08,269.95,,
0,0,0,0,0,0,0,0.002,0.0094,0.0436,0.1161,0.1901,0.2687,0.359,0.3442,0.2969,0.225,0.2064,0.1814,0.2113,0.2445,0.3355,0.5324,0.8601,1.1147,1.3265,1.4946,1.6753,1.9399,2.3557,2.9241,3.56,3.9164,3.4099,1.9276,0.6587,17.2574,1.134,11.53,0.075,0.9921,5.17,-5,2021,5,28,11,5,23,5/28/2021,11:05:23 AM,5/28/2021 11:05:23,6.554,147.35,30.7299,45,2494,2710,3299,0,24012,111,0,0.96,1.652,11:05:23 AM,51.27598438,2.607859,1.6,RTK       ,,,,,,,2021-05-28 11:05:23+00:00,51.276077,2.6078665,-4.75,0.08,0.08,269.92,,
0,0,0,0,0,0,0,0,0.0015,0.014,0.0663,0.1494,0.2555,0.3856,0.3693,0.3118,0.2252,0.1984,0.1638,0.1863,0.2104,0.2729,0.4003,0.6004,0.7403,0.905,1.1338,1.4718,1.9598,2.5934,3.2347,3.6515,3.5292,2.6956,1.3213,0.3314,15.8499,1.1347,11.52,0.075,0.9921,5.11,-5,2021,5,28,11,5,24,5/28/2021,11:05:24 AM,5/28/2021 11:05:24,6.554,147.1,27.3789,45,2500,2720,3289,0,24003,118,0,0.96,1.628,11:05:24 AM,51.27598767,2.6078695,1.6,RTK       ,,,,,,,2021-05-28 11:05:24+00:00,51.27607833,2.6078755,-4.13,0.08,0.08,269.96,,
0,0,0,0,0,0,0,0,0.0032,0.022,0.0832,0.1652,0.2578,0.361,0.3392,0.288,0.2141,0.1921,0.1611,0.1781,0.1955,0.2494,0.3689,0.5875,0.7941,1.0395,1.3238,1.6735,2.1296,2.7412,3.4272,3.9189,3.6679,2.569,1.1836,0.3161,16.7952,1.1368,11.52,0.075,0.9921,5.15,-5,2021,5,28,11,5,25,5/28/2021,11:05:25 AM,5/28/2021 11:05:25,6.554,147.05,28.4507,45,2506,2729,3292,0,24009,105,0,0.962,1.556,11:05:25 AM,51.27599028,2.60787983,1.4,RTK       ,,,,,,,2021-05-28 11:05:25+00:00,,,,,,,,
0,0,0,0,0,0,0,0,0.004,0.0253,0.086,0.1666,0.2613,0.3739,0.3533,0.2889,0.2029,0.1763,0.146,0.1675,0.1912,0.2595,0.408,0.651,0.8257,0.9749,1.0971,1.216,1.3639,1.5793,1.8677,2.232,2.538,2.45,1.6164,0.6063,12.6863,1.1354,11.53,0.075,0.9916,5.23,-5,2021,5,28,11,5,26,5/28/2021,11:05:26 AM,5/28/2021 11:05:26,6.554,138.89,22.1291,46,2509,2729,3305,0,24022,102,0,0.961,1.58,11:05:26 AM,51.27599355,2.60788883,1.4,RTK       ,,,,,,,2021-05-28 11:05:26+00:00,,,,,,,,
0,0,0,0,0,0,0,0.0012,0.0059,0.0301,0.0946,0.177,0.2678,0.3624,0.3386,0.2814,0.2059,0.1784,0.1486,0.1629,0.1771,0.2278,0.3377,0.5389,0.7542,1.0372,1.4034,1.881,2.4783,3.1749,3.7917,4.0779,3.7983,3.0153,1.8205,0.6978,18.057,1.1333,11.52,0.075,0.9921,5.27,-5,2021,5,28,11,5,27,5/28/2021,11:05:27 AM,5/28/2021 11:05:27,6.554,155.25,31.4668,45,2496,2725,3303,0,24028,91,0,0.959,1.676,11:05:27 AM,51.27599767,2.60789717,1.3,RTK       ,,,,,,,2021-05-28 11:05:27+00:00,,,,,,,,
0,0,0,0,0,0,0,0.0011,0.0058,0.0302,0.0937,0.1754,0.2661,0.3632,0.3415,0.2861,0.2105,0.184,0.1529,0.168,0.1832,0.2409,0.3694,0.6079,0.8529,1.1549,1.515,1.9303,2.3396,2.6865,2.9409,3.1371,3.243,3.1819,2.494,1.0888,17.1,1.1361,11.53,0.075,0.9921,5.3,-5,2021,5,28,11,5,28,5/28/2021,11:05:28 AM,5/28/2021 11:05:28,6.554,154.57,30.2449,45,2508,2716,3315,0,24033,91,0,0.961,1.58,11:05:28 AM,51.27600022,2.607906,1.3,RTK       ,,,,,,,2021-05-28 11:05:28+00:00,51.2760955,2.607921833,-5.48,0.08,0.08,269.85,,
0,0,0,0,0,0,0,0.0015,0.0078,0.0399,0.1113,0.1857,0.2638,0.3574,0.3463,0.3019,0.2266,0.2038,0.172,0.1965,0.2231,0.3118,0.5215,0.8989,1.2009,1.4157,1.5438,1.6813,1.9319,2.3997,3.1226,3.9678,4.2974,3.4024,1.7012,0.5366,17.6657,1.1327,11.53,0.075,0.9921,5.3,-5,2021,5,28,11,5,29,5/28/2021,11:05:29 AM,5/28/2021 11:05:29,6.554,147.89,31.5712,45,2513,2714,3315,0,24033,104,0,0.958,1.7,11:05:29 AM,51.27600082,2.60791633,1.5,RTK       ,,,,,,,2021-05-28 11:05:29+00:00,51.2760895,2.607910333,-5.53,0.09,0.09,269.88,,
0,0,0,0,0,0,0,0,0.0026,0.0205,0.0828,0.1647,0.2589,0.3724,0.3546,0.3031,0.2214,0.1982,0.1653,0.1911,0.2196,0.2957,0.4588,0.727,0.9177,1.0931,1.2569,1.4448,1.7284,2.2056,2.951,3.9048,4.6475,4.5621,3.0828,1.1183,15.6342,1.132,11.53,0.075,0.9927,5.24,-5,2021,5,28,11,5,30,5/28/2021,11:05:30 AM,5/28/2021 11:05:30,6.554,166.85,32.9497,46,2501,2726,3296,0,24024,100,0,0.957,1.748,11:05:30 AM,51.27600235,2.6079285,1.8,RTK       ,,,,,,,2021-05-28 11:05:30+00:00,,,,,,,,
0,0,0,0,0,0,0,0,0.003,0.0203,0.0781,0.1636,0.2668,0.3823,0.3568,0.2903,0.2046,0.1748,0.1417,0.1563,0.1715,0.2279,0.3561,0.6033,0.857,1.138,1.381,1.5426,1.6375,1.7208,1.8405,1.9659,1.9227,1.5335,0.8484,0.2864,13.7148,1.1395,11.53,0.075,0.9927,5.08,-5,2021,5,28,11,5,31,5/28/2021,11:05:31 AM,5/28/2021 11:05:31,6.554,122.76,20.2716,45,2504,2726,3281,0,23999,97,0,0.964,1.483,11:05:31 AM,51.27600582,2.60794033,1.6,RTK       ,,,,,,,2021-05-28 11:05:31+00:00,,,,,,,,
0,0,0,0,0,0,0,0,0.0023,0.0172,0.0739,0.1606,0.2667,0.3851,0.3548,0.2871,0.2011,0.1733,0.1436,0.1652,0.189,0.259,0.4105,0.6693,0.8791,1.0766,1.2582,1.4422,1.6662,1.9955,2.4951,3.1844,3.8341,3.8493,2.5986,0.8348,14.5716,1.1354,11.53,0.075,0.9916,5.07,-5,2021,5,28,11,5,32,5/28/2021,11:05:32 AM,5/28/2021 11:05:32,6.554,159.15,28.8728,46,2509,2725,3295,0,23997,89,0,0.961,1.58,11:05:32 AM,51.27600983,2.6079485,1.1,RTK       ,,,,,,,2021-05-28 11:05:32+00:00,,,,,,,,
0,0,0,0,0,0,0,0,0.0029,0.0217,0.0845,0.1679,0.2623,0.3698,0.3406,0.2761,0.1903,0.1607,0.1275,0.1438,0.161,0.2205,0.3567,0.5945,0.7923,0.9917,1.1891,1.4304,1.8247,2.53,3.5908,4.808,5.2466,3.9897,1.7716,0.4842,15.8298,1.134,11.53,0.075,0.9921,5.24,-5,2021,5,28,11,5,33,5/28/2021,11:05:33 AM,5/28/2021 11:05:33,6.554,164.83,32.1299,46,2510,2715,3322,0,24024,94,0,0.96,1.652,11:05:33 AM,51.27601298,2.60795433,1,RTK       ,,,,,,,2021-05-28 11:05:33+00:00,51.27610517,2.607978833,-3.97,0.09,0.09,269.98,,
0,0,0,0,0,0,0,0,0.0025,0.0198,0.0792,0.1623,0.2594,0.369,0.3378,0.2721,0.1888,0.1639,0.1347,0.1569,0.1819,0.2579,0.4323,0.7329,0.9471,1.094,1.1707,1.2411,1.3884,1.7011,2.2302,2.9328,3.3416,2.7669,1.3508,0.3524,13.524,1.1409,11.53,0.075,0.9921,5.33,-5,2021,5,28,11,5,34,5/28/2021,11:05:34 AM,5/28/2021 11:05:34,6.554,143.1,24.2687,45,2495,2705,3314,0,24037,102,0,0.965,1.412,11:05:34 AM,51.27601567,2.607963,1.6,RTK       ,,,,,,,2021-05-28 11:05:34+00:00,,,,,,,,
0,0,0,0,0,0,0,0.0018,0.0084,0.0392,0.1079,0.1893,0.281,0.3879,0.3734,0.3132,0.2279,0.1992,0.1668,0.1882,0.2111,0.2847,0.4478,0.7301,0.9729,1.1874,1.3417,1.464,1.6332,1.9123,2.2898,2.6269,2.6745,2.2806,1.4575,0.6259,14.9592,1.1361,11.52,0.075,0.9921,5.26,-5,2021,5,28,11,5,35,5/28/2021,11:05:35 AM,5/28/2021 11:05:35,6.554,134.48,24.6244,45,2488,2722,3297,0,24026,94,0,0.961,1.58,11:05:35 AM,51.27601745,2.60797567,1.9,RTK       ,,,,,,,2021-05-28 11:05:35+00:00,51.27610467,2.60799,-4.95,0.09,0.09,269.93,,
0,0,0,0,0,0,0,0.002,0.0095,0.0439,0.1162,0.189,0.2674,0.3571,0.3415,0.2946,0.224,0.2057,0.1783,0.2004,0.2238,0.2938,0.4444,0.7018,0.9197,1.1345,1.3135,1.4593,1.6256,1.9074,2.4069,3.1753,4.0571,4.5287,3.5921,1.492,14.8603,1.134,11.52,0.075,0.9916,5.15,-5,2021,5,28,11,5,36,5/28/2021,11:05:36 AM,5/28/2021 11:05:36,6.554,166.19,31.7055,45,2506,2732,3287,0,24009,89,0,0.96,1.629,11:05:36 AM,51.27601753,2.60798933,1.7,RTK       ,,,,,,,2021-05-28 11:05:36+00:00,,,,,,,,
0,0,0,0,0,0,0,0.0011,0.006,0.0315,0.0935,0.1655,0.2455,0.3406,0.3349,0.2967,0.2311,0.2141,0.1853,0.2064,0.2288,0.294,0.4332,0.6562,0.8139,0.9464,1.0607,1.1917,1.3703,1.608,1.8412,2.009,1.9392,1.5181,0.8267,0.2855,12.7966,1.1395,11.52,0.075,0.9916,5.14,-5,2021,5,28,11,5,37,5/28/2021,11:05:37 AM,5/28/2021 11:05:37,6.554,120.89,19.3751,45,2512,2739,3297,0,24008,81,0,0.965,1.436,11:05:37 AM,51.27601732,2.608001,1.5,RTK       ,,,,,,,2021-05-28 11:05:37+00:00,,,,,,,,
0,0,0,0,0,0,0,0.0016,0.0074,0.0343,0.097,0.1757,0.2617,0.3541,0.3324,0.2747,0.2017,0.1801,0.157,0.1822,0.2104,0.2895,0.4576,0.7256,0.9159,1.0407,1.0921,1.113,1.1686,1.3244,1.6343,2.1557,2.7898,3.1226,2.3919,1.0348,12.232,1.1388,11.52,0.075,0.9916,5.25,-5,2021,5,28,11,5,38,5/28/2021,11:05:38 AM,5/28/2021 11:05:38,6.554,148.46,23.7267,46,2518,2737,3314,0,24025,83,0,0.964,1.46,11:05:38 AM,51.27601848,2.60801067,1.3,RTK       ,,,,,,,2021-05-28 11:05:38+00:00,,,,,,,,
0,0,0,0,0,0,0,0.0019,0.0086,0.0387,0.1036,0.1777,0.2556,0.34,0.3257,0.285,0.2227,0.2063,0.181,0.2032,0.2269,0.3025,0.4701,0.7571,0.9886,1.167,1.2782,1.3788,1.5514,1.8626,2.2585,2.5815,2.51,1.9476,1.0588,0.3708,14.5917,1.1374,11.52,0.075,0.9927,5.31,-5,2021,5,28,11,5,39,5/28/2021,11:05:39 AM,5/28/2021 11:05:39,6.554,129.46,23.0602,45,2509,2725,3312,0,24034,89,0,0.962,1.555,11:05:39 AM,51.27602178,2.6080195,1.5,RTK       ,,,,,,,2021-05-28 11:05:39+00:00,51.27610367,2.608062667,-5.38,0.09,0.09,269.93,,
0,0,0,0,0,0,0,0.0023,0.0107,0.0476,0.1256,0.2006,0.2721,0.3463,0.3248,0.2816,0.2182,0.2003,0.1762,0.201,0.2277,0.3019,0.4632,0.7564,1.0549,1.3863,1.6935,1.9566,2.2249,2.5962,3.0806,3.6445,3.9881,3.638,2.3098,0.9136,18.1495,1.132,11.53,0.075,0.9916,5.24,-5,2021,5,28,11,5,40,5/28/2021,11:05:40 AM,5/28/2021 11:05:40,6.554,152.56,32.6434,45,2502,2721,3300,0,24023,93,0,0.958,1.701,11:05:40 AM,51.2760253,2.608029,1.5,RTK       ,,,,,,,2021-05-28 11:05:40+00:00,51.27610267,2.608067833,-5.56,0.09,0.09,269.92,,
0,0,0,0,0,0,0,0,0.0036,0.0242,0.0888,0.1756,0.2741,0.3796,0.3478,0.2838,0.2028,0.1776,0.148,0.1691,0.1918,0.2658,0.4374,0.767,1.094,1.4245,1.6943,1.9158,2.167,2.5336,3.0096,3.488,3.6286,2.971,1.5444,0.4882,17.7758,1.1333,11.52,0.075,0.9927,5.16,-5,2021,5,28,11,5,41,5/28/2021,11:05:41 AM,5/28/2021 11:05:41,6.554,144.87,29.8961,45,2489,2718,3286,0,24011,111,0,0.958,1.7,11:05:41 AM,51.27602655,2.60803967,1.5,RTK       ,,,,,,,2021-05-28 11:05:41+00:00,,,,,,,,
0,0,0,0,0,0,0,0,0.0015,0.014,0.0676,0.155,0.2659,0.3979,0.3706,0.3027,0.2095,0.1787,0.1423,0.1607,0.1801,0.2507,0.4201,0.7546,1.0829,1.4143,1.6814,1.8986,2.178,2.6421,3.3709,4.3389,5.0055,4.2096,1.9234,0.4466,18.1401,1.1327,11.52,0.075,0.9921,5.24,-5,2021,5,28,11,5,42,5/28/2021,11:05:42 AM,5/28/2021 11:05:42,6.554,157.35,34.0642,45,2514,2720,3306,0,24023,90,0,0.958,1.7,11:05:42 AM,51.2760265,2.608051,1.6,RTK       ,,,,,,,2021-05-28 11:05:42+00:00,,,,,,,,
0,0,0,0,0,0,0,0,0.0048,0.0288,0.0982,0.1843,0.276,0.3704,0.3426,0.2921,0.2242,0.2083,0.1828,0.205,0.2285,0.2924,0.4272,0.6579,0.8511,1.0527,1.2494,1.4676,1.7819,2.2992,3.061,3.8425,4.044,3.2917,1.8517,0.6264,15.7864,1.1361,11.53,0.075,0.9921,5.27,-5,2021,5,28,11,5,43,5/28/2021,11:05:43 AM,5/28/2021 11:05:43,6.554,152.42,29.4428,45,2513,2727,3308,0,24028,85,0,0.961,1.58,11:05:43 AM,51.27602743,2.608063,1.7,RTK       ,,,,,,,2021-05-28 11:05:43+00:00,,,,,,,,
0,0,0,0,0,0,0,0,0.002,0.0166,0.0745,0.1603,0.2644,0.3883,0.3703,0.3176,0.2334,0.2059,0.1677,0.185,0.2024,0.264,0.4037,0.6637,0.9101,1.2097,1.6002,2.1631,2.9388,3.8505,4.6088,4.8723,4.3336,3.067,1.5203,0.4502,21.201,1.1333,11.52,0.075,0.9916,5.23,-5,2021,5,28,11,5,44,5/28/2021,11:05:44 AM,5/28/2021 11:05:44,6.554,152.75,35.4444,45,2499,2725,3301,0,24022,81,0,0.96,1.653,11:05:44 AM,51.27602908,2.60807433,1.5,RTK       ,,,,,,,2021-05-28 11:05:44+00:00,51.2761175,2.608117833,-4.65,0.08,0.08,269.95,,
0,0,0,0,0,0,0,0.0014,0.007,0.0351,0.105,0.1842,0.2691,0.3636,0.3504,0.3077,0.2378,0.2156,0.1841,0.2037,0.2237,0.2886,0.4292,0.6626,0.8562,1.0507,1.2728,1.612,2.2074,3.163,4.243,4.9543,4.7031,3.5423,1.9124,0.7129,18.4739,1.134,11.52,0.075,0.9921,5.26,-5,2021,5,28,11,5,45,5/28/2021,11:05:45 AM,5/28/2021 11:05:45,6.554,158.5,34.2987,45,2494,2722,3304,0,24026,80,0,0.96,1.652,11:05:45 AM,51.27602888,2.60808483,1.4,RTK       ,,,,,,,2021-05-28 11:05:45+00:00,51.27611067,2.608131833,-3.7,0.09,0.09,270,,
0,0,0,0,0,0,0,0,0.0029,0.0209,0.0842,0.1716,0.2709,0.3757,0.3428,0.2826,0.2067,0.1857,0.16,0.1856,0.214,0.2845,0.4295,0.6608,0.829,0.9921,1.1663,1.3968,1.752,2.2958,3.0028,3.6725,3.8424,3.2002,1.8156,0.5874,15.3132,1.1333,11.53,0.075,0.9916,5.29,-5,2021,5,28,11,5,46,5/28/2021,11:05:46 AM,5/28/2021 11:05:46,6.554,152.8,28.4311,45,2507,2716,3307,0,24031,94,0,0.96,1.653,11:05:46 AM,51.27602697,2.608096,1.7,RTK       ,,,,,,,2021-05-28 11:05:46+00:00,51.27610967,2.608147333,-3.83,0.09,0.09,269.99,,
0,0,0,0,0,0,0,0,0.0019,0.0161,0.0722,0.1593,0.2683,0.3992,0.3784,0.3139,0.222,0.1908,0.153,0.1684,0.1839,0.2384,0.3617,0.5958,0.8269,1.1064,1.4042,1.6886,1.9551,2.2564,2.6753,3.278,3.8347,3.6474,2.1599,0.6255,15.6362,1.134,11.52,0.075,0.9921,5.23,-5,2021,5,28,11,5,47,5/28/2021,11:05:47 AM,5/28/2021 11:05:47,6.554,154.33,29.1817,45,2515,2732,3301,0,24022,84,0,0.96,1.652,11:05:47 AM,51.27602612,2.60810917,1.9,RTK       ,,,,,,,2021-05-28 11:05:47+00:00,51.27610933,2.6081605,-4.46,0.09,0.09,269.98,,
0,0,0,0,0,0,0,0,0.0022,0.0176,0.0764,0.1647,0.2697,0.3838,0.3508,0.2871,0.2049,0.1799,0.15,0.1717,0.195,0.2651,0.4189,0.6874,0.9131,1.1378,1.3491,1.578,1.9165,2.5368,3.6601,5.5454,7.5855,7.473,4.0364,1.1063,16.9166,1.1286,11.52,0.075,0.9916,5.17,-5,2021,5,28,11,5,48,5/28/2021,11:05:48 AM,5/28/2021 11:05:48,6.554,187.14,42.6634,45,2502,2727,3282,0,24013,91,0,0.955,1.822,11:05:48 AM,51.2760273,2.608122,1.6,RTK       ,,,,,,,2021-05-28 11:05:48+00:00,,,,,,,,
0,0,0,0,0,0,0,0,0.0042,0.0269,0.096,0.1839,0.2823,0.3879,0.3547,0.288,0.204,0.1769,0.146,0.167,0.1896,0.2673,0.4481,0.7641,1.0145,1.2318,1.433,1.6698,2.0232,2.572,3.2954,4.0415,4.2854,3.4518,1.7832,0.5276,17.2266,1.132,11.53,0.075,0.9921,5.32,-5,2021,5,28,11,5,49,5/28/2021,11:05:49 AM,5/28/2021 11:05:49,6.554,152.44,31.316,46,2512,2728,3311,0,24036,85,0,0.958,1.725,11:05:49 AM,51.27602907,2.60813183,1.2,RTK       ,,,,,,,2021-05-28 11:05:49+00:00,,,,,,,,
0,0,0,0,0,0,0,0,0.003,0.0215,0.0845,0.1711,0.2675,0.3702,0.3358,0.2724,0.1922,0.1665,0.1375,0.1566,0.1769,0.239,0.3775,0.6281,0.8611,1.1236,1.4145,1.7563,2.196,2.825,3.6542,4.5942,5.0727,4.3816,2.4396,0.7214,17.431,1.134,11.52,0.075,0.9921,5.37,-5,2021,5,28,11,5,50,5/28/2021,11:05:50 AM,5/28/2021 11:05:50,6.554,166.35,34.6405,45,2515,2724,3327,0,24044,83,0,0.96,1.652,11:05:50 AM,51.2760301,2.60814067,1.4,RTK       ,,,,,,,2021-05-28 11:05:50+00:00,,,,,,,,
0,0,0,0,0,0,0,0,0.005,0.0282,0.0935,0.1795,0.2753,0.3755,0.3436,0.2785,0.1994,0.1746,0.1482,0.1701,0.1942,0.2653,0.4208,0.7001,0.9616,1.2215,1.4178,1.5271,1.6032,1.7475,2.0269,2.4825,3.0214,3.3492,2.7685,1.2817,14.3574,1.1354,11.52,0.075,0.9921,5.26,-5,2021,5,28,11,5,51,5/28/2021,11:05:51 AM,5/28/2021 11:05:51,6.554,153.58,27.2605,45,2485,2715,3298,0,24027,102,0,0.961,1.604,11:05:51 AM,51.2760302,2.60815183,1.7,RTK       ,,,,,,,2021-05-28 11:05:51+00:00,51.27610783,2.608214833,-4.07,0.08,0.08,269.99,,
0,0,0,0,0,0,0,0.001,0.0061,0.0342,0.1049,0.1847,0.2699,0.3651,0.3415,0.2859,0.2082,0.1847,0.1554,0.177,0.2004,0.2712,0.4309,0.7117,0.9471,1.1578,1.325,1.497,1.7564,2.1998,2.8014,3.3195,3.2193,2.4026,1.2321,0.3841,15.6173,1.1333,11.53,0.075,0.9916,5.27,-5,2021,5,28,11,5,52,5/28/2021,11:05:52 AM,5/28/2021 11:05:52,6.554,139.95,26.1749,45,2501,2726,3302,0,24029,86,0,0.96,1.653,11:05:52 AM,51.27602945,2.60816517,1.8,RTK       ,,,,,,,2021-05-28 11:05:52+00:00,51.2761075,2.608228,-4.22,0.08,0.08,269.99,,
0,0,0,0,0,0,0,0,0.0048,0.0295,0.098,0.1775,0.2656,0.3687,0.3511,0.2973,0.2157,0.1881,0.1532,0.1701,0.1876,0.2523,0.4062,0.7037,1.0035,1.3224,1.6016,1.8338,2.1044,2.504,2.9996,3.3311,3.0933,2.2668,1.1529,0.3552,17.2387,1.1347,11.52,0.075,0.9916,5.27,-5,2021,5,28,11,5,53,5/28/2021,11:05:53 AM,5/28/2021 11:05:53,6.554,138.07,27.4379,45,2513,2729,3301,0,24029,85,0,0.961,1.604,11:05:53 AM,51.27602723,2.60817817,1.8,RTK       ,,,,,,,2021-05-28 11:05:53+00:00,51.2761045,2.608244167,-4.41,0.07,0.07,269.97,,
0,0,0,0,0,0,0,0,0.0054,0.032,0.102,0.1812,0.2631,0.3528,0.332,0.2846,0.2129,0.1908,0.1593,0.1786,0.1987,0.2713,0.4423,0.7554,1.0314,1.2812,1.4667,1.6169,1.8368,2.2901,3.049,3.963,4.3599,3.6631,2.0333,0.6638,16.5345,1.1327,11.52,0.075,0.9933,5.27,-5,2021,5,28,11,5,54,5/28/2021,11:05:54 AM,5/28/2021 11:05:54,6.554,154.98,31.2178,45,2516,2732,3307,0,24029,83,0,0.957,1.748,11:05:54 AM,51.2760245,2.60819117,1.9,RTK       ,,,,,,,2021-05-28 11:05:54+00:00,51.276101,2.6082585,-4.47,0.07,0.07,269.97,,
0,0,0,0,0,0,0,0,0.0032,0.0226,0.0851,0.1696,0.2652,0.371,0.3443,0.2874,0.2095,0.1863,0.1556,0.1767,0.1993,0.2711,0.4324,0.7215,0.9741,1.2345,1.4901,1.7493,2.0392,2.4313,2.9402,3.4979,3.6596,2.9894,1.6394,0.5458,16.7595,1.134,11.53,0.075,0.9921,5.29,-5,2021,5,28,11,5,55,5/28/2021,11:05:55 AM,5/28/2021 11:05:55,6.554,147.44,29.0917,46,2523,2750,3297,0,24031,91,0,0.96,1.652,11:05:55 AM,51.2760228,2.60820433,1.7,RTK       ,,,,,,,2021-05-28 11:05:55+00:00,51.276094,2.608270667,-4.09,0.07,0.07,269.98,,
0,0,0,0,0,0,0,0.0011,0.006,0.031,0.0929,0.1697,0.2544,0.3478,0.3294,0.279,0.2083,0.1864,0.1567,0.1734,0.1907,0.2566,0.4069,0.6674,0.8785,1.061,1.2039,1.3304,1.4869,1.7377,2.118,2.6368,3.0375,2.8305,1.7878,0.711,13.5741,1.1402,11.52,0.075,0.9921,5.19,-5,2021,5,28,11,5,56,5/28/2021,11:05:56 AM,5/28/2021 11:05:56,6.554,145.69,24.5778,45,2514,2751,3296,0,24016,94,0,0.965,1.436,11:05:56 AM,51.27602258,2.60821617,1.5,RTK       ,,,,,,,2021-05-28 11:05:56+00:00,,,,,,,,
0,0,0,0,0,0,0,0,0.0028,0.0218,0.0838,0.1647,0.2539,0.3568,0.3339,0.2822,0.2081,0.1894,0.1589,0.1808,0.2045,0.2727,0.4236,0.6717,0.8348,0.9729,1.1047,1.2898,1.5857,2.0314,2.542,2.9032,2.7964,2.12,1.0779,0.2975,14.1709,1.1388,11.52,0.075,0.9916,5.25,-5,2021,5,28,11,5,57,5/28/2021,11:05:57 AM,5/28/2021 11:05:57,6.554,136.74,23.3658,45,2519,2732,3328,0,24025,118,0,0.964,1.46,11:05:57 AM,51.27602265,2.60822633,1.4,RTK       ,,,,,,,2021-05-28 11:05:57+00:00,,,,,,,,
0,0,0,0,0,0,0,0,0.0047,0.0283,0.0938,0.1756,0.2669,0.372,0.355,0.3011,0.2208,0.1954,0.1632,0.1845,0.2072,0.2854,0.4674,0.8012,1.0948,1.3501,1.5285,1.656,1.7978,2.0502,2.4431,2.9088,3.0407,2.447,1.2968,0.4115,16.043,1.1347,11.53,0.075,0.9927,5.34,-5,2021,5,28,11,5,58,5/28/2021,11:05:58 AM,5/28/2021 11:05:58,6.554,135.66,26.1479,45,2493,2710,3306,0,24040,110,0,0.96,1.652,11:05:58 AM,51.27602255,2.60823783,1.8,RTK       ,,,,,,,2021-05-28 11:05:58+00:00,,,,,,,,
0,0,0,0,0,0,0,0.001,0.0057,0.0314,0.1007,0.1869,0.2795,0.3724,0.3364,0.2727,0.1974,0.1754,0.1516,0.1756,0.2021,0.2788,0.4512,0.7727,1.0911,1.4197,1.7207,1.9921,2.2227,2.4004,2.4647,2.3634,2.0311,1.5279,0.9007,0.3356,17.3029,1.134,11.53,0.075,0.9916,5.24,-5,2021,5,28,11,5,59,5/28/2021,11:05:59 AM,5/28/2021 11:05:59,6.554,124.24,24.4617,45,2478,2717,3290,0,24024,113,0,0.96,1.629,11:05:59 AM,51.27602247,2.60825217,2.1,RTK       ,,,,,,,2021-05-28 11:05:59+00:00,51.27609,2.608326,-3.81,0.07,0.07,270,,
0,0,0,0,0,0,0,0.0011,0.0055,0.0287,0.0891,0.1695,0.2611,0.3603,0.3372,0.2783,0.203,0.1794,0.1532,0.174,0.1966,0.2648,0.4108,0.6556,0.8561,1.0333,1.1694,1.2916,1.468,1.7807,2.2384,2.6831,2.734,2.164,1.185,0.432,13.6057,1.1361,11.52,0.075,0.9921,5.21,-5,2021,5,28,11,6,0,5/28/2021,11:06:00 AM,5/28/2021 11:06:00,6.554,136.31,22.8038,45,2519,2716,3298,0,24019,95,0,0.961,1.58,11:06:00 AM,51.27602133,2.6082665,1.8,RTK       ,,,,,,,2021-05-28 11:06:00+00:00,51.27608717,2.608340833,-4.21,0.08,0.08,270,,
0,0,0,0,0,0,0,0.0017,0.0077,0.0349,0.0952,0.1679,0.2491,0.3401,0.3249,0.2732,0.2024,0.1812,0.157,0.1812,0.2081,0.2835,0.4377,0.6671,0.8159,0.9329,1.034,1.1539,1.3393,1.6423,2.0283,2.385,2.5095,2.3361,1.6689,0.7107,12.7595,1.1402,11.52,0.075,0.9921,5.15,-5,2021,5,28,11,6,1,5/28/2021,11:06:01 AM,5/28/2021 11:06:01,6.554,140.5,22.3696,45,2517,2731,3299,0,24010,105,0,0.965,1.436,11:06:01 AM,51.27601845,2.6082785,1.7,RTK       ,,,,,,,2021-05-28 11:06:01+00:00,51.276084,2.608353833,-3.76,0.08,0.08,270,,
0,0,0,0,0,0,0,0,0.0043,0.028,0.0931,0.173,0.2594,0.355,0.3267,0.2663,0.1901,0.1693,0.1433,0.1681,0.1964,0.2748,0.4505,0.7386,0.9215,1.03,1.0776,1.1209,1.2226,1.4059,1.6785,1.959,2.0099,1.6379,0.8647,0.2749,12.2939,1.1443,11.52,0.075,0.9921,5.26,-5,2021,5,28,11,6,2,5/28/2021,11:06:02 AM,5/28/2021 11:06:02,6.554,122.07,19.0404,45,2531,2750,3324,0,24026,107,0,0.968,1.292,11:06:02 AM,51.2760139,2.60828967,2,RTK       ,,,,,,,2021-05-28 11:06:02+00:00,,,,,,,,
0,0,0,0,0,0,0,0.0013,0.0068,0.0338,0.0995,0.1767,0.2615,0.3516,0.3234,0.2614,0.1858,0.1606,0.1339,0.1501,0.1675,0.2242,0.3489,0.5635,0.7524,0.9497,1.1548,1.3799,1.6093,1.7932,1.8267,1.717,1.478,1.1534,0.6913,0.2627,12.9165,1.1402,11.52,0.075,0.9916,5.19,-5,2021,5,28,11,6,3,5/28/2021,11:06:03 AM,5/28/2021 11:06:03,6.554,118.07,18.2189,45,2493,2720,3307,0,24016,97,0,0.965,1.412,11:06:03 AM,51.27600977,2.60830383,2.3,RTK       ,,,,,,,2021-05-28 11:06:03+00:00,,,,,,,,
0,0,0,0,0,0,0,0,0.0043,0.0257,0.0859,0.1649,0.254,0.3482,0.316,0.2529,0.1801,0.16,0.1374,0.1589,0.1829,0.2457,0.3767,0.5925,0.7629,0.9322,1.0936,1.2596,1.4406,1.6458,1.8532,1.9852,1.8637,1.3386,0.6568,0.2098,12.474,1.1409,11.53,0.075,0.9921,5.05,-5,2021,5,28,11,6,4,5/28/2021,11:06:04 AM,5/28/2021 11:06:04,6.554,121.95,18.5281,45,2510,2709,3300,0,23994,106,0,0.965,1.412,11:06:04 AM,51.27600782,2.6083195,2.1,RTK       ,,,,,,,2021-05-28 11:06:04+00:00,,,,,,,,
0,0,0,0,0,0,0,0,0.0039,0.023,0.0778,0.1554,0.25,0.3596,0.337,0.2691,0.1855,0.1558,0.125,0.1381,0.1516,0.2027,0.3177,0.5161,0.6834,0.8447,0.9962,1.1673,1.3934,1.7018,2.0639,2.3983,2.4887,2.1587,1.3472,0.4681,12.119,1.1429,11.52,0.075,0.9921,5.01,-5,2021,5,28,11,6,5,5/28/2021,11:06:05 AM,5/28/2021 11:06:05,6.554,141.14,20.98,45,2517,2726,3307,0,23988,118,0,0.967,1.34,11:06:05 AM,51.27600792,2.60833267,1.6,RTK       ,,,,,,,2021-05-28 11:06:05+00:00,,,,,,,,
0,0,0,0,0,0,0,0,0.0046,0.0278,0.0921,0.1717,0.2601,0.3607,0.3399,0.2805,0.1989,0.1691,0.1351,0.1467,0.1583,0.2097,0.3368,0.5941,0.868,1.1377,1.3026,1.3513,1.3685,1.472,1.7199,2.1541,2.6606,2.8124,1.9668,0.7172,12.7061,1.1368,11.52,0.075,0.9916,4.99,-5,2021,5,28,11,6,6,5/28/2021,11:06:06 AM,5/28/2021 11:06:06,6.554,144.38,23.0172,46,2489,2728,3302,0,23984,130,0,0.962,1.532,11:06:06 AM,51.27600835,2.60834383,1.5,RTK       ,,,,,,,2021-05-28 11:06:06+00:00,51.27607117,2.608433667,-8.93,0.09,0.09,269.9,,
0,0,0,0,0,0,0,0.0031,0.0133,0.055,0.1229,0.1821,0.2445,0.3226,0.3118,0.2631,0.19,0.1662,0.1368,0.1515,0.167,0.2237,0.355,0.5799,0.7516,0.8814,0.9435,0.9546,0.9582,1.0102,1.1411,1.3666,1.6,1.641,1.1991,0.5146,10.1291,1.1436,11.52,0.075,0.9921,4.92,-5,2021,5,28,11,6,7,5/28/2021,11:06:07 AM,5/28/2021 11:06:07,6.554,122.02,16.4506,45,2474,2724,3295,0,23973,142,0,0.968,1.316,11:06:07 AM,51.27600733,2.608356,1.9,RTK       ,,,,,,,2021-05-28 11:06:07+00:00,51.27606817,2.608451,-9.11,0.09,0.09,269.89,,
0,0,0,0,0,0,0.0016,0.0044,0.0137,0.0439,0.1001,0.1704,0.253,0.3445,0.3355,0.2795,0.2057,0.1775,0.1525,0.1694,0.1872,0.2473,0.373,0.5774,0.7581,0.92,1.0521,1.177,1.3213,1.5037,1.6898,1.8578,1.9154,1.7351,1.2348,0.6449,12.0586,1.1381,11.52,0.075,0.9921,4.84,-5,2021,5,28,11,6,8,5/28/2021,11:06:08 AM,5/28/2021 11:06:08,6.554,128.99,19.4464,45,2480,2712,3284,0,23961,129,0,0.963,1.508,11:06:08 AM,51.27600357,2.60836983,2.2,RTK       ,,,,,,,2021-05-28 11:06:08+00:00,,,,,,,,
0,0,0,0,0,0,0,0,0.0032,0.0213,0.079,0.1589,0.2543,0.3628,0.3378,0.2755,0.196,0.1728,0.1457,0.1663,0.1888,0.2524,0.3915,0.6395,0.8587,1.0724,1.2276,1.326,1.4313,1.6117,1.8823,2.1531,2.2303,1.9397,1.1843,0.3832,13.0558,1.1361,11.52,0.075,0.9927,4.81,-5,2021,5,28,11,6,9,5/28/2021,11:06:09 AM,5/28/2021 11:06:09,6.554,130.81,20.9463,46,2492,2741,3285,0,23956,125,0,0.961,1.604,11:06:09 AM,51.27599782,2.60838417,2.3,RTK       ,,,,,,,2021-05-28 11:06:09+00:00,,,,,,,,
0,0,0,0,0,0,0,0.0014,0.0062,0.0283,0.0827,0.1579,0.2482,0.3493,0.3343,0.2733,0.1958,0.1675,0.1396,0.1532,0.1673,0.2141,0.311,0.4641,0.5827,0.6924,0.7929,0.9068,1.0718,1.3348,1.7156,2.1401,2.3486,2.1046,1.4434,0.7296,10.3912,1.1388,11.52,0.075,0.9916,4.85,-5,2021,5,28,11,6,10,5/28/2021,11:06:10 AM,5/28/2021 11:06:10,6.554,142.08,19.1574,45,2498,2727,3300,0,23963,123,0,0.964,1.46,11:06:10 AM,51.27599315,2.60839883,2.1,RTK       ,,,,,,,2021-05-28 11:06:10+00:00,,,,,,,,
0,0,0,0,0,0,0,0.0012,0.0058,0.0282,0.0886,0.1698,0.2628,0.3563,0.3228,0.2541,0.1778,0.1522,0.1301,0.1499,0.1716,0.2357,0.3737,0.61,0.8202,1.0043,1.145,1.2967,1.5456,1.9612,2.4894,2.9595,3.1031,2.6817,1.6627,0.6226,13.753,1.1374,11.52,0.075,0.9921,4.84,-5,2021,5,28,11,6,11,5/28/2021,11:06:11 AM,5/28/2021 11:06:11,6.554,148.51,24.7827,45,2498,2729,3297,0,23961,140,0,0.962,1.532,11:06:11 AM,51.27599145,2.60841333,1.9,RTK       ,,,,,,,2021-05-28 11:06:11+00:00,51.276048,2.608487,-4.04,0.09,0.09,269.99,,
0,0,0,0,0,0,0,0.0024,0.0094,0.0375,0.098,0.174,0.2633,0.3589,0.3345,0.2662,0.1865,0.1587,0.1343,0.1529,0.1733,0.2401,0.387,0.6486,0.9012,1.1383,1.3077,1.4061,1.4622,1.5193,1.5918,1.696,1.7655,1.6708,1.1863,0.5418,12.9522,1.1415,11.52,0.075,0.9916,4.85,-5,2021,5,28,11,6,12,5/28/2021,11:06:12 AM,5/28/2021 11:06:12,6.554,124.93,19.8125,46,2474,2744,3297,0,23963,126,0,0.966,1.364,11:06:12 AM,51.27599073,2.60842617,1.7,RTK       ,,,,,,,2021-05-28 11:06:12+00:00,51.27604233,2.608502333,-3.58,0.11,0.11,270,,
0,0,0,0,0,0,0,0.0016,0.0076,0.0352,0.1002,0.1796,0.2693,0.368,0.348,0.2897,0.2124,0.1876,0.1609,0.1835,0.2082,0.2832,0.4461,0.7245,0.9608,1.1589,1.2911,1.386,1.5087,1.7404,2.1409,2.7127,3.2284,3.2514,2.3064,0.9097,14.1924,1.1333,11.52,0.075,0.9921,4.81,-5,2021,5,28,11,6,13,5/28/2021,11:06:13 AM,5/28/2021 11:06:13,6.554,149.27,26.601,45,2478,2717,3300,0,23956,131,0,0.959,1.676,11:06:13 AM,51.27598813,2.60843833,2,RTK       ,,,,,,,2021-05-28 11:06:13+00:00,51.2760385,2.608517833,-3.57,0.11,0.11,270,,
0,0,0,0,0,0,0,0,0.002,0.0169,0.0725,0.156,0.2611,0.3917,0.3742,0.3095,0.2163,0.1854,0.1472,0.1651,0.1844,0.2501,0.3973,0.6422,0.815,0.969,1.0971,1.2136,1.3582,1.5649,1.8177,2.0461,2.0432,1.6239,0.8516,0.2527,12.6074,1.1361,11.52,0.075,0.9921,4.73,-5,2021,5,28,11,6,14,5/28/2021,11:06:14 AM,5/28/2021 11:06:14,6.554,123.12,19.4249,45,2475,2719,3281,0,23944,123,0,0.961,1.58,11:06:14 AM,51.27598335,2.60845217,2.4,RTK       ,,,,,,,2021-05-28 11:06:14+00:00,51.27603117,2.608532333,-4.13,0.11,0.11,269.99,,
0,0,0,0,0,0,0,0.0012,0.0058,0.0292,0.0897,0.1654,0.2506,0.3414,0.3175,0.2604,0.1886,0.1645,0.1389,0.1559,0.1738,0.2307,0.3528,0.5627,0.7527,0.9445,1.1157,1.2694,1.4393,1.6692,1.9657,2.3067,2.5311,2.315,1.5501,0.7603,12.5856,1.1415,11.52,0.075,0.9916,4.74,-5,2021,5,28,11,6,15,5/28/2021,11:06:15 AM,5/28/2021 11:06:15,6.554,142.82,22.0489,45,2476,2718,3267,0,23945,132,0,0.966,1.364,11:06:15 AM,51.27597827,2.60846767,2.4,RTK       ,,,,,,,2021-05-28 11:06:15+00:00,,,,,,,,
0,0,0,0,0,0,0,0.0022,0.0107,0.049,0.1182,0.1806,0.2462,0.325,0.3093,0.261,0.191,0.1702,0.141,0.1559,0.1714,0.2272,0.3556,0.5782,0.7546,0.9098,1.0232,1.1079,1.1978,1.3386,1.5567,1.9067,2.3067,2.4125,1.6718,0.6414,11.3813,1.1429,11.53,0.075,0.9927,4.78,-5,2021,5,28,11,6,16,5/28/2021,11:06:16 AM,5/28/2021 11:06:16,6.554,139.12,20.3205,45,2491,2721,3283,0,23951,121,0,0.966,1.364,11:06:16 AM,51.27597483,2.60848267,2,RTK       ,,,,,,,2021-05-28 11:06:16+00:00,,,,,,,,
0,0,0,0,0,0,0,0.0015,0.008,0.0402,0.1121,0.1838,0.2575,0.3431,0.3309,0.2896,0.2198,0.1967,0.1632,0.18,0.197,0.2624,0.4174,0.7067,0.9792,1.2421,1.4699,1.7072,2.0147,2.4517,2.9987,3.5295,3.5373,2.6789,1.3039,0.3961,16.7734,1.1333,11.53,0.075,0.9916,4.78,-5,2021,5,28,11,6,17,5/28/2021,11:06:17 AM,5/28/2021 11:06:17,6.554,143.05,28.2193,45,2484,2729,3295,0,23951,112,0,0.96,1.653,11:06:17 AM,51.27597357,2.6084965,1.7,RTK       ,,,,,,,2021-05-28 11:06:17+00:00,,,,,,,,
0,0,0,0,0,0,0,0,0.0028,0.0214,0.0808,0.158,0.2456,0.3495,0.3278,0.2718,0.1927,0.169,0.1371,0.1551,0.1745,0.2393,0.3933,0.6589,0.8367,0.9475,0.9988,1.0605,1.22,1.5654,2.1328,2.8846,3.4424,3.1425,1.7892,0.5873,12.3393,1.1381,11.52,0.075,0.9921,4.86,-5,2021,5,28,11,6,18,5/28/2021,11:06:18 AM,5/28/2021 11:06:18,6.554,152.04,24.1853,45,2471,2713,3297,0,23964,126,0,0.963,1.508,11:06:18 AM,51.27597207,2.60850933,1.8,RTK       ,,,,,,,2021-05-28 11:06:18+00:00,51.27602083,2.608599,-3.76,0.08,0.08,269.99,,
0,0,0,0,0,0,0,0,0.0047,0.0265,0.091,0.177,0.2772,0.385,0.358,0.2969,0.2173,0.1936,0.1671,0.1905,0.2157,0.2889,0.4467,0.729,0.9906,1.249,1.4808,1.7186,2.0067,2.3675,2.7815,3.21,3.488,3.2589,2.1815,0.83,16.6598,1.1354,11.53,0.075,0.9921,4.86,-5,2021,5,28,11,6,19,5/28/2021,11:06:19 AM,5/28/2021 11:06:19,6.554,149.59,29.6282,45,2461,2726,3298,0,23964,131,0,0.961,1.604,11:06:19 AM,51.27596792,2.60852283,2.3,RTK       ,,,,,,,2021-05-28 11:06:19+00:00,51.27601417,2.608614833,-3.56,0.08,0.08,270,,
0,0,0,0,0,0,0,0,0.004,0.0251,0.0891,0.1746,0.2726,0.3786,0.3487,0.2886,0.2113,0.1919,0.1687,0.2004,0.2365,0.3313,0.5351,0.8871,1.1801,1.4507,1.6809,1.8882,2.1131,2.4223,2.8371,3.2314,3.2159,2.4868,1.3134,0.4401,17.916,1.1327,11.48,0.075,0.9916,4.88,-5,2021,5,28,11,6,20,5/28/2021,11:06:20 AM,5/28/2021 11:06:20,6.554,136.78,28.604,45,2480,2714,3263,0,23967,110,0,0.959,1.677,11:06:20 AM,51.27596155,2.60853833,2.7,RTK       ,,,,,,,2021-05-28 11:06:20+00:00,,,,,,,,
0,0,0,0,0,0,0,0,0.0041,0.0256,0.0892,0.1692,0.2583,0.3564,0.3321,0.2793,0.2079,0.1914,0.17,0.202,0.2387,0.3299,0.527,0.8796,1.1958,1.5009,1.7289,1.8424,1.8623,1.8661,1.8555,1.7358,1.3939,0.9654,0.5402,0.1874,16.1126,1.134,11.53,0.075,0.9916,4.84,-5,2021,5,28,11,6,21,5/28/2021,11:06:21 AM,5/28/2021 11:06:21,6.554,109.12,20.9352,46,2520,2767,3308,0,23961,91,0,0.96,1.629,11:06:21 AM,51.27595458,2.60855367,2.3,RTK       ,,,,,,,2021-05-28 11:06:21+00:00,,,,,,,,
0,0,0,0,0,0,0.0015,0.0047,0.0167,0.0582,0.1267,0.1928,0.2614,0.3389,0.3275,0.2822,0.2147,0.1932,0.1681,0.1895,0.2122,0.2788,0.4166,0.6358,0.8107,0.9626,1.0842,1.2088,1.3987,1.763,2.4427,3.6251,5.1116,5.9167,4.5808,2.1767,13.5902,1.132,11.52,0.075,0.9921,4.95,-5,2021,5,28,11,6,22,5/28/2021,11:06:22 AM,5/28/2021 11:06:22,6.554,184.86,35.0014,45,2514,2725,3297,0,23978,103,0,0.958,1.725,11:06:22 AM,51.27594948,2.60856733,2,RTK       ,,,,,,,2021-05-28 11:06:22+00:00,,,,,,,,
0,0,0,0,0,0,0,0,0.0033,0.0249,0.0972,0.1877,0.2811,0.3726,0.3299,0.2715,0.199,0.1795,0.1516,0.173,0.196,0.27,0.4444,0.7696,1.0493,1.2877,1.4642,1.6541,1.9633,2.4804,3.1678,3.9106,4.2799,3.721,2.0765,0.6419,17.0181,1.1333,11.52,0.075,0.9927,4.96,-5,2021,5,28,11,6,23,5/28/2021,11:06:23 AM,5/28/2021 11:06:23,6.554,155.05,31.6477,45,2484,2737,3300,0,23979,93,0,0.958,1.7,11:06:23 AM,51.27594702,2.60858133,2.1,RTK       ,,,,,,,2021-05-28 11:06:23+00:00,51.27598917,2.608656167,-6.96,0.07,0.07,269.5,,
0,0,0,0,0,0,0,0,0.0014,0.0158,0.0787,0.1676,0.2664,0.3787,0.3421,0.2859,0.2062,0.1872,0.1538,0.177,0.2022,0.279,0.4609,0.8051,1.0952,1.3892,1.6512,1.9102,2.2566,2.795,3.5022,4.1252,4.0277,2.7802,1.0807,0.194,18.6076,1.1292,11.52,0.075,0.9916,5,-5,2021,5,28,11,6,24,5/28/2021,11:06:24 AM,5/28/2021 11:06:24,6.554,144.01,30.8154,45,2483,2717,3298,0,23986,116,0,0.956,1.798,11:06:24 AM,51.27594635,2.6085965,2.1,RTK       ,,,,,,,2021-05-28 11:06:24+00:00,,,,,,,,
0,0,0,0,0,0,0,0,0.0045,0.0276,0.0944,0.1774,0.2655,0.3589,0.3327,0.2795,0.207,0.1848,0.1558,0.1764,0.1983,0.2658,0.4177,0.6879,0.923,1.1476,1.3582,1.6055,1.9556,2.4691,3.1182,3.7868,4.0243,3.3533,1.8383,0.5562,16.4114,1.1327,11.52,0.075,0.9916,4.94,-5,2021,5,28,11,6,25,5/28/2021,11:06:25 AM,5/28/2021 11:06:25,6.554,153.06,29.97,45,2478,2711,3281,0,23977,125,0,0.959,1.677,11:06:25 AM,51.27594472,2.6086115,2.1,RTK       ,,,,,,,2021-05-28 11:06:25+00:00,,,,,,,,
0,0,0,0,0,0,0,0.0016,0.0079,0.0386,0.11,0.1902,0.2728,0.3599,0.3353,0.2823,0.2101,0.188,0.16,0.1811,0.2038,0.2804,0.4563,0.7735,1.0519,1.2879,1.4535,1.6025,1.834,2.2258,2.749,3.2046,3.2361,2.6466,1.4989,0.4804,16.2564,1.1327,11.52,0.075,0.9916,4.94,-5,2021,5,28,11,6,26,5/28/2021,11:06:26 AM,5/28/2021 11:06:26,6.554,140.9,27.323,45,2484,2715,3292,0,23976,99,0,0.959,1.677,11:06:26 AM,51.27593983,2.6086255,2.4,RTK       ,,,,,,,2021-05-28 11:06:26+00:00,,,,,,,,
0,0,0,0,0,0,0,0.0014,0.0072,0.0376,0.1129,0.1988,0.2849,0.3722,0.3448,0.2988,0.2343,0.2227,0.2022,0.2365,0.2748,0.3739,0.5843,0.9394,1.2201,1.4366,1.5565,1.645,1.8241,2.2557,3.118,4.6312,6.3879,6.7033,4.2079,1.5214,17.7827,1.1251,11.53,0.075,0.9916,4.96,-5,2021,5,28,11,6,27,5/28/2021,11:06:27 AM,5/28/2021 11:06:27,6.554,175.23,41.2343,45,2487,2725,3291,0,23980,107,0,0.953,1.943,11:06:27 AM,51.27593235,2.60863967,2.6,RTK       ,,,,,,,2021-05-28 11:06:27+00:00,,,,,,,,
0,0,0,0,0,0,0,0,0.003,0.0214,0.0845,0.1743,0.2796,0.3964,0.367,0.3002,0.2131,0.1853,0.1533,0.175,0.1983,0.2644,0.4042,0.6371,0.8268,1.0409,1.2906,1.6033,2.0229,2.6208,3.3898,4.153,4.3488,3.5372,1.9096,0.5883,16.6522,1.1333,11.53,0.075,0.9921,4.96,-5,2021,5,28,11,6,28,5/28/2021,11:06:28 AM,5/28/2021 11:06:28,6.554,156.34,31.1891,45,2482,2731,3279,0,23979,89,0,0.959,1.676,11:06:28 AM,51.27592498,2.608655,2.5,RTK       ,,,,,,,2021-05-28 11:06:28+00:00,,,,,,,,
0,0,0,0,0,0,0,0.0011,0.006,0.0315,0.0976,0.1798,0.268,0.3595,0.3314,0.2743,0.2026,0.1811,0.1562,0.1762,0.1975,0.2598,0.3972,0.6481,0.8935,1.1521,1.3772,1.5555,1.7274,2.0091,2.5017,3.2461,4.0034,4.207,3.079,1.2294,14.9844,1.1327,11.53,0.075,0.9921,5.03,-5,2021,5,28,11,6,29,5/28/2021,11:06:29 AM,5/28/2021 11:06:29,6.554,164.16,30.7495,45,2493,2737,3298,0,23991,97,0,0.958,1.7,11:06:29 AM,51.27591977,2.60867017,2.3,RTK       ,,,,,,,2021-05-28 11:06:29+00:00,51.27595567,2.608765833,-4.3,0.06,0.06,269.88,,
0,0,0,0,0,0,0,0,0.0043,0.0253,0.0858,0.1669,0.2616,0.3717,0.3611,0.312,0.2336,0.2075,0.1743,0.1944,0.2152,0.2835,0.4346,0.7105,0.9787,1.2789,1.5932,1.9419,2.3721,2.9253,3.4971,3.8429,3.5612,2.6371,1.4084,0.5074,18.6295,1.132,11.52,0.075,0.9916,5.08,-5,2021,5,28,11,6,30,5/28/2021,11:06:30 AM,5/28/2021 11:06:30,6.554,144.46,30.5865,45,2496,2724,3309,0,23999,96,0,0.958,1.701,11:06:30 AM,51.27591663,2.60868533,2.2,RTK       ,,,,,,,2021-05-28 11:06:30+00:00,51.27595283,2.608787667,-4.86,0.06,0.06,269.76,,
0,0,0,0,0,0,0,0,0.0027,0.0199,0.0811,0.1676,0.2697,0.3879,0.3685,0.3146,0.2312,0.2051,0.1708,0.1943,0.2194,0.3022,0.4926,0.8462,1.1618,1.4298,1.5955,1.7229,1.9389,2.3684,3.0511,3.917,4.5536,4.2782,2.696,0.9063,17.5422,1.1327,11.53,0.075,0.9916,5.05,-5,2021,5,28,11,6,31,5/28/2021,11:06:31 AM,5/28/2021 11:06:31,6.554,158.1,33.8933,46,2486,2716,3292,0,23994,104,0,0.959,1.677,11:06:31 AM,51.27591368,2.60870067,2,RTK       ,,,,,,,2021-05-28 11:06:31+00:00,,,,,,,,
0,0,0,0,0,0,0,0.0015,0.0072,0.034,0.1006,0.1829,0.27,0.3571,0.3317,0.2813,0.2167,0.199,0.1763,0.1993,0.2239,0.2943,0.4429,0.7068,0.9646,1.2514,1.5561,1.8926,2.2772,2.6911,3.062,3.2191,2.9322,2.1568,1.1811,0.4176,17.7205,1.1327,11.53,0.075,0.9916,5.07,-5,2021,5,28,11,6,32,5/28/2021,11:06:32 AM,5/28/2021 11:06:32,6.554,136.95,27.6273,45,2480,2705,3287,0,23997,94,0,0.959,1.677,11:06:32 AM,51.27590952,2.608715,2.1,RTK       ,,,,,,,2021-05-28 11:06:32+00:00,,,,,,,,
0,0,0,0,0,0,0,0.0013,0.0067,0.0343,0.1024,0.1837,0.2685,0.3585,0.3351,0.2827,0.2113,0.1899,0.1647,0.1896,0.2171,0.2957,0.4698,0.777,1.0439,1.2584,1.3727,1.4218,1.4996,1.7173,2.177,2.9385,3.7664,3.9772,2.8653,1.1328,14.579,1.1354,11.53,0.075,0.991,5.13,-5,2021,5,28,11,6,33,5/28/2021,11:06:33 AM,5/28/2021 11:06:33,6.554,157.3,29.259,45,2497,2729,3303,0,24006,82,0,0.962,1.557,11:06:33 AM,51.27590452,2.608729,2.3,RTK       ,,,,,,,2021-05-28 11:06:33+00:00,,,,,,,,
0,0,0,0,0,0,0,0.0017,0.0083,0.0399,0.1106,0.1905,0.2759,0.3685,0.3467,0.2914,0.2165,0.192,0.1612,0.1763,0.1914,0.2432,0.357,0.5659,0.7842,1.0708,1.422,1.8201,2.224,2.6257,3.0047,3.2998,3.2713,2.713,1.6267,0.5912,16.6885,1.1361,11.53,0.075,0.991,5.13,-5,2021,5,28,11,6,34,5/28/2021,11:06:34 AM,5/28/2021 11:06:34,6.554,146.08,28.1904,45,2497,2734,3303,0,24006,86,0,0.962,1.533,11:06:34 AM,51.27589923,2.60874483,2.6,RTK       ,,,,,,,2021-05-28 11:06:34+00:00,51.27593283,2.608837833,-3.65,0.07,0.07,269.98,,
0,0,0,0,0,0,0,0,0.0038,0.0249,0.0885,0.1688,0.2582,0.3596,0.3426,0.2979,0.2276,0.2105,0.183,0.2106,0.2405,0.3228,0.5024,0.7996,1.0071,1.1563,1.2594,1.3984,1.7044,2.3325,3.3818,4.6747,5.3948,4.6572,2.5115,0.8066,16.4812,1.1306,11.53,0.075,0.9916,5.09,-5,2021,5,28,11,6,35,5/28/2021,11:06:35 AM,5/28/2021 11:06:35,6.554,164.93,34.526,45,2501,2738,3292,0,24000,87,0,0.957,1.749,11:06:35 AM,51.27589348,2.60876117,2.5,RTK       ,,,,,,,2021-05-28 11:06:35+00:00,51.275929,2.608862333,-4.06,0.06,0.06,269.88,,
0,0,0,0,0,0,0,0,0.0057,0.0323,0.1013,0.1812,0.2666,0.3628,0.3477,0.3034,0.2324,0.2102,0.1759,0.1905,0.2048,0.2619,0.395,0.6518,0.9189,1.2379,1.5827,1.9405,2.2646,2.4851,2.5456,2.5641,2.547,2.2707,1.4372,0.5277,16.8988,1.1374,11.52,0.075,0.9921,5.08,-5,2021,5,28,11,6,36,5/28/2021,11:06:36 AM,5/28/2021 11:06:36,6.554,135.53,26.2454,45,2503,2729,3297,0,23999,81,0,0.962,1.532,11:06:36 AM,51.27588758,2.60877633,2.3,RTK       ,,,,,,,2021-05-28 11:06:36+00:00,51.2759195,2.6088755,-4.63,0.06,0.06,269.75,,
0,0,0,0,0,0,0,0,0.0041,0.0262,0.0935,0.1798,0.2738,0.3783,0.3618,0.3149,0.2399,0.2178,0.1857,0.2103,0.2366,0.3113,0.4692,0.7404,0.9763,1.2366,1.5191,1.8409,2.2331,2.6833,2.9988,2.926,2.3401,1.515,0.7335,0.2413,17.7317,1.1381,11.53,0.075,0.9916,5.11,-5,2021,5,28,11,6,37,5/28/2021,11:06:37 AM,5/28/2021 11:06:37,6.554,126.09,25.4879,45,2501,2727,3302,0,24003,88,0,0.964,1.484,11:06:37 AM,51.2758826,2.608791,2.2,RTK       ,,,,,,,2021-05-28 11:06:37+00:00,51.27591483,2.608891,-4.49,0.06,0.06,269.78,,
0,0,0,0,0,0,0,0,0.0037,0.0231,0.085,0.1703,0.2686,0.3748,0.3474,0.2857,0.2058,0.1804,0.1519,0.1737,0.1974,0.2714,0.4359,0.7258,0.9732,1.1887,1.3481,1.4808,1.6518,1.9379,2.4085,3.1319,3.9211,4.0173,2.5971,0.8455,14.8899,1.1327,11.5,0.075,0.9921,5.14,-5,2021,5,28,11,6,38,5/28/2021,11:06:38 AM,5/28/2021 11:06:38,6.554,157.7,29.4027,46,2499,2716,3309,0,24008,85,0,0.958,1.7,11:06:38 AM,51.27587825,2.60880583,2.3,RTK       ,,,,,,,2021-05-28 11:06:38+00:00,51.275907,2.608905833,-4.22,0.06,0.06,269.84,,
0,0,0,0,0,0,0,0,0.0038,0.0253,0.091,0.1783,0.2767,0.3866,0.362,0.3061,0.2268,0.2049,0.1749,0.2,0.2273,0.3071,0.4819,0.7856,1.0351,1.2644,1.4521,1.6363,1.8889,2.3067,2.9382,3.75,4.2953,3.7536,2.0354,0.5951,16.76,1.1292,11.52,0.075,0.9916,5.1,-5,2021,5,28,11,6,39,5/28/2021,11:06:39 AM,5/28/2021 11:06:39,6.554,152.04,31.1892,45,2503,2710,3310,0,24001,86,0,0.956,1.798,11:06:39 AM,51.27587362,2.608821,2.4,RTK       ,,,,,,,2021-05-28 11:06:39+00:00,51.27590133,2.608923833,-4.3,0.08,0.08,269.91,,
0,0,0,0,0,0,0,0,0.0051,0.0302,0.0993,0.1816,0.2711,0.3695,0.3456,0.2875,0.2081,0.181,0.1486,0.1641,0.1799,0.2358,0.3634,0.5925,0.7994,1.0223,1.2617,1.5402,1.8823,2.3188,2.8234,3.3491,3.6363,3.3233,2.1128,0.7479,15.3114,1.1333,11.53,0.075,0.9916,5.01,-5,2021,5,28,11,6,40,5/28/2021,11:06:40 AM,5/28/2021 11:06:40,6.554,154.65,28.4808,45,2492,2717,3291,0,23988,92,0,0.96,1.653,11:06:40 AM,51.27586792,2.60883733,2.6,RTK       ,,,,,,,2021-05-28 11:06:40+00:00,51.2758935,2.608937667,-4.39,0.08,0.08,269.9,,
0,0,0,0,0,0,0,0,0.005,0.028,0.0901,0.1721,0.2634,0.3613,0.3365,0.279,0.2043,0.1811,0.1529,0.1719,0.192,0.2567,0.3995,0.6544,0.8894,1.148,1.4245,1.7285,2.0585,2.393,2.6587,2.7382,2.4843,1.8783,1.0829,0.4053,16.0488,1.1368,11.52,0.075,0.9916,5.01,-5,2021,5,28,11,6,41,5/28/2021,11:06:41 AM,5/28/2021 11:06:41,6.554,133.91,24.638,45,2490,2724,3277,0,23988,85,0,0.962,1.532,11:06:41 AM,51.27586148,2.60885333,2.5,RTK       ,,,,,,,2021-05-28 11:06:41+00:00,51.275888,2.608953667,-4.48,0.08,0.08,269.88,,
0,0,0,0,0,0,0,0.0017,0.0093,0.0475,0.1306,0.2062,0.2787,0.358,0.3344,0.2893,0.2204,0.2022,0.1737,0.1981,0.2244,0.3018,0.4735,0.7633,0.9943,1.223,1.4693,1.7852,2.2371,2.887,3.6464,4.2759,4.2983,3.4138,1.8415,0.5783,18.4554,1.1306,11.51,0.075,0.9916,4.99,-5,2021,5,28,11,6,42,5/28/2021,11:06:42 AM,5/28/2021 11:06:42,6.554,151.64,32.8631,45,2501,2738,3296,0,23985,76,0,0.957,1.749,11:06:42 AM,51.27585562,2.60886817,2.2,RTK       ,,,,,,,2021-05-28 11:06:42+00:00,51.27588417,2.608969833,-4.63,0.08,0.08,269.86,,
0,0,0,0,0,0,0,0,0.0047,0.0293,0.0987,0.183,0.2718,0.3696,0.3477,0.2989,0.2253,0.2047,0.1755,0.2001,0.2265,0.2977,0.4499,0.7189,0.968,1.2572,1.5625,1.8772,2.2487,2.7803,3.4987,4.2539,4.4645,3.5399,1.7897,0.5542,18.2949,1.1299,11.52,0.075,0.9916,5.06,-5,2021,5,28,11,6,43,5/28/2021,11:06:43 AM,5/28/2021 11:06:43,6.554,152.7,32.897,45,2499,2730,3311,0,23995,85,0,0.957,1.773,11:06:43 AM,51.27585062,2.60888317,2.3,RTK       ,,,,,,,2021-05-28 11:06:43+00:00,51.27587667,2.608985333,-4.55,0.08,0.08,269.83,,
0,0,0,0,0,0,0,0,0.0036,0.0241,0.0893,0.1764,0.2769,0.39,0.3645,0.3043,0.2199,0.1939,0.162,0.1847,0.2089,0.2874,0.4678,0.8022,1.109,1.4012,1.6492,1.9126,2.292,2.9038,3.7703,4.7581,5.1931,4.1932,2.0454,0.551,19.194,1.1292,11.52,0.075,0.9921,5.05,-5,2021,5,28,11,6,44,5/28/2021,11:06:44 AM,5/28/2021 11:06:44,6.554,157.65,35.9349,45,2478,2716,3293,0,23993,89,0,0.955,1.821,11:06:44 AM,51.27584623,2.60889967,2.5,RTK       ,,,,,,,2021-05-28 11:06:44+00:00,51.27587367,2.6090005,-4.59,0.08,0.08,269.82,,
0,0,0,0,0,0,0,0,0.0049,0.0297,0.1011,0.1884,0.2812,0.3817,0.3598,0.3102,0.2354,0.2141,0.1842,0.212,0.2421,0.3315,0.5316,0.885,1.1864,1.4619,1.6954,1.9412,2.3094,2.9682,4.0209,5.2483,5.749,4.7139,2.5763,0.8902,20.0763,1.1286,11.52,0.075,0.9916,5.02,-5,2021,5,28,11,6,45,5/28/2021,11:06:45 AM,5/28/2021 11:06:45,6.554,162.16,39.2543,46,2489,2719,3292,0,23989,89,0,0.955,1.822,11:06:45 AM,51.27584173,2.60891617,2.4,RTK       ,,,,,,,2021-05-28 11:06:45+00:00,51.27586667,2.6090145,-4.23,0.08,0.08,269.88,,
0,0,0,0,0,0,0,0,0.0058,0.0355,0.1144,0.1997,0.2844,0.3759,0.3485,0.3018,0.2314,0.2169,0.1905,0.2219,0.2567,0.3525,0.5672,0.9465,1.252,1.5004,1.6582,1.7853,2.0149,2.5104,3.4304,4.8142,6.0321,5.7133,3.2988,0.9735,18.8012,1.1251,11.53,0.075,0.9921,5.01,-5,2021,5,28,11,6,46,5/28/2021,11:06:46 AM,5/28/2021 11:06:46,6.554,166.59,39.6332,45,2488,2721,3296,0,23987,84,0,0.952,1.967,11:06:46 AM,51.27583648,2.60893167,2.4,RTK       ,,,,,,,2021-05-28 11:06:46+00:00,51.27585967,2.609030167,-4.43,0.08,0.08,269.85,,
0,0,0,0,0,0,0,0,0.003,0.0216,0.086,0.1744,0.2717,0.374,0.3448,0.294,0.2232,0.2071,0.1837,0.216,0.252,0.3365,0.51,0.7973,1.0219,1.2356,1.4467,1.7337,2.2493,3.1613,4.5395,6.0674,6.564,4.9768,2.1972,0.5381,19.6833,1.1299,11.5,0.075,0.9916,5.05,-5,2021,5,28,11,6,47,5/28/2021,11:06:47 AM,5/28/2021 11:06:47,6.554,166.87,40.027,45,2495,2726,3304,0,23994,89,0,0.957,1.773,11:06:47 AM,51.27583027,2.60894667,2.5,RTK       ,,,,,,,2021-05-28 11:06:47+00:00,51.27585367,2.609046,-3.91,0.1,0.1,269.96,,
0,0,0,0,0,0,0,0,0.0056,0.033,0.1071,0.1909,0.2759,0.3715,0.3599,0.3277,0.264,0.25,0.2191,0.2466,0.2753,0.3582,0.5414,0.8656,1.144,1.4044,1.61,1.7983,2.0788,2.6103,3.5351,4.9736,6.5453,7.008,4.9216,1.9529,18.8727,1.1286,11.52,0.075,0.9921,5.04,-5,2021,5,28,11,6,48,5/28/2021,11:06:48 AM,5/28/2021 11:06:48,6.554,180.19,44.2741,45,2496,2734,3298,0,23992,85,0,0.955,1.845,11:06:48 AM,51.27582322,2.60896233,2.8,RTK       ,,,,,,,2021-05-28 11:06:48+00:00,51.27584517,2.609062,-3.67,0.1,0.1,269.99,,
0,0,0,0,0,0,0,0,0.0039,0.0269,0.0978,0.1821,0.2704,0.3683,0.3483,0.3086,0.2421,0.2304,0.205,0.24,0.2791,0.3752,0.5778,0.9173,1.1752,1.4157,1.6366,1.8772,2.2051,2.7078,3.4236,4.2088,4.534,3.9029,2.3027,0.7832,19.1144,1.1313,11.52,0.075,0.9916,4.94,-5,2021,5,28,11,6,49,5/28/2021,11:06:49 AM,5/28/2021 11:06:49,6.554,152.76,34.8462,45,2489,2733,3284,0,23977,94,0,0.958,1.725,11:06:49 AM,51.27581583,2.608979,2.8,RTK       ,,,,,,,2021-05-28 11:06:49+00:00,,,,,,,,
0,0,0,0,0,0,0,0.0014,0.007,0.0351,0.108,0.1952,0.2853,0.3731,0.3453,0.298,0.2341,0.2215,0.2039,0.2415,0.2839,0.3867,0.5957,0.928,1.1753,1.3632,1.5221,1.7727,2.2738,3.2073,4.58,6.0117,6.4616,5.2845,2.9416,1.0226,20.6381,1.1245,11.48,0.075,0.9921,4.85,-5,2021,5,28,11,6,50,5/28/2021,11:06:50 AM,5/28/2021 11:06:50,6.554,167.79,42.3605,45,2487,2740,3278,0,23963,88,0,0.951,1.991,11:06:50 AM,51.2758095,2.6089955,2.5,RTK       ,,,,,,,2021-05-28 11:06:50+00:00,,,,,,,,
0,0,0,0,0,0,0,0,0.0044,0.0262,0.0904,0.1746,0.2662,0.3585,0.3233,0.2609,0.1866,0.1639,0.1401,0.1627,0.1875,0.2564,0.4042,0.6584,0.879,1.1047,1.3382,1.6194,1.9964,2.5232,3.1775,3.8085,3.9631,3.1313,1.6239,0.5086,16.3027,1.1354,11.52,0.075,0.9916,4.89,-5,2021,5,28,11,6,51,5/28/2021,11:06:51 AM,5/28/2021 11:06:51,6.554,152.71,29.338,45,2492,2724,3294,0,23969,94,0,0.961,1.58,11:06:51 AM,51.27580478,2.60901083,2.2,RTK       ,,,,,,,2021-05-28 11:06:51+00:00,,,,,,,,
0,0,0,0,0,0,0,0,0.0035,0.0251,0.0948,0.1818,0.2704,0.3621,0.3295,0.2785,0.2091,0.1915,0.165,0.1904,0.2181,0.2923,0.4539,0.7364,0.975,1.2156,1.439,1.671,2.0052,2.5774,3.4416,4.4342,4.8048,3.8439,1.8904,0.5119,17.3272,1.1327,11.53,0.075,0.9921,5,-5,2021,5,28,11,6,52,5/28/2021,11:06:52 AM,5/28/2021 11:06:52,6.554,156.9,32.8123,46,2497,2720,3316,0,23986,98,0,0.958,1.7,11:06:52 AM,51.2758016,2.60902617,2.3,RTK       ,,,,,,,2021-05-28 11:06:52+00:00,51.275788,2.609118667,-3.76,0.08,0.08,269.99,,
0,0,0,0,0,0,0,0.0014,0.007,0.0344,0.1012,0.1824,0.2693,0.3598,0.3361,0.2835,0.2146,0.1958,0.1722,0.1963,0.2223,0.2914,0.4335,0.6689,0.8699,1.0839,1.3174,1.6095,2.014,2.581,3.246,3.7794,3.7067,2.8539,1.5704,0.5818,16.6918,1.1374,11.52,0.075,0.9921,5.06,-5,2021,5,28,11,6,53,5/28/2021,11:06:53 AM,5/28/2021 11:06:53,6.554,148.39,29.184,45,2500,2710,3317,0,23995,95,0,0.962,1.532,11:06:53 AM,51.27579848,2.60904333,2.6,RTK       ,,,,,,,2021-05-28 11:06:53+00:00,51.2758145,2.609137333,-3.64,0.08,0.08,269.99,,
0,0,0,0,0,0,0,0.0015,0.0074,0.0354,0.1017,0.1803,0.2692,0.3705,0.3562,0.3037,0.2276,0.2042,0.175,0.1968,0.2202,0.2924,0.449,0.7175,0.9484,1.159,1.3101,1.4113,1.5072,1.6829,1.9916,2.4575,2.8751,2.8697,2.0577,0.8697,14.1191,1.134,11.52,0.075,0.9921,4.91,-5,2021,5,28,11,6,54,5/28/2021,11:06:54 AM,5/28/2021 11:06:54,6.554,142.72,25.2489,45,2485,2716,3288,0,23971,90,0,0.96,1.652,11:06:54 AM,51.27579317,2.60906083,2.8,RTK       ,,,,,,,2021-05-28 11:06:54+00:00,,,,,,,,
