Volume conc (microl/l) 1,Volume conc (microl/l) 2,Volume conc (microl/l) 3,Volume conc (microl/l) 4,Volume conc (microl/l) 5,Volume conc (microl/l) 6,Volume conc (microl/l) 7,Volume conc (microl/l) 8,Volume conc (microl/l) 9,Volume conc (microl/l) 10,Volume conc (microl/l) 11,Volume conc (microl/l) 12,Volume conc (microl/l) 13,Volume conc (microl/l) 14,Volume conc (microl/l) 15,Volume conc (microl/l) 16,Volume conc (microl/l) 17,Volume conc (microl/l) 18,Volume conc (microl/l) 19,Volume conc (microl/l) 20,Volume conc (microl/l) 21,Volume conc (microl/l) 22,Volume conc (microl/l) 23,Volume conc (microl/l) 24,Volume conc (microl/l) 25,Volume conc (microl/l) 26,Volume conc (microl/l) 27,Volume conc (microl/l) 28,Volume conc (microl/l) 29,Volume conc (microl/l) 30,Volume conc (microl/l) 31,Volume conc (microl/l) 32,Volume conc (microl/l) 33,Volume conc (microl/l) 34,Volume conc (microl/l) 35,Volume conc (microl/l) 36,TVC_recal,Laser transmission Sensor [mW],Supply voltage in calibrated units [V],External Auxiliary input 1 in calibrated units [mW],Laser Reference sensor in calibrated units [mW],Depth in calibrated units [m],Temperature in calibrated units [C],year,Month,day,hour,minute,second,DATE,TIME,DATE  & Time (format gps),External Auxiliary input 2 in calibrated units [mW],Sauter Mean Diameter [?],Total Volume Concentration [ppm],Relative Humidity [%],Accelerometer X [counts],Accelerometer Y [counts],Accelerometer Z [counts],Raw pressure (most sign bit),Raw pressure (least sign 16 bits),Ambient light (counts),Not used,Computed optical transmission over path,Beam-attenuation (c) [m-1].,Current Time,Latitude_ship,Longitude_ship,Speed Over Ground,GPSfix,Row Labels,Average of Salinity,Average of Temperature_C,Average of Turbidity_NTU,Average of Depth_m,Average of Chlorohyll_ug_L,Time,VPR lat,VPR long,VPR depth,majoraxis,minoraxis,angle,devz,linename
0,0,0,0,0,0,0.0016,0.1591,0.7038,0.2373,0,0,0,0,0,0,0,0,0,0,0,0,0,0.0145,0.1531,0.8876,2.4851,3.6336,4.1377,5.4446,8.532,12.1136,10.6289,3.2904,0.1797,0.0016,26.39,1.0234,10.93,0.069,0.9974,0.08,-5,2021,7,9,12,21,46,7/9/2021,12:21:46 PM,7/09/2021 12:21:46,6.554,183,52.6042,47,2373,2713,3209,0,23226,29199,0,0.867,5.714,12:21:46 PM,51.17138722,2.62908467,1,RTK       ,,,,,,,2021-07-09 12:21:46+00:00,,,,,,,,
0,0,0,0,0,0.0367,0.2182,0.5354,0.3892,0.0402,0,0,0,0,0,0,0,0,0,0,0,0,0.0012,0.0224,0.2016,1.0453,2.7074,3.7546,4.0627,5.0352,7.5925,11.6026,13.7233,8.106,1.3563,0.0652,25.6426,1.0247,10.92,0.075,0.9957,0.08,-5,2021,7,9,12,21,47,7/9/2021,12:21:47 PM,7/09/2021 12:21:47,6.554,194.69,60.4961,47,2371,2719,3216,0,23227,30090,0,0.87,5.59,12:21:47 PM,51.17138922,2.62909067,0.9,RTK       ,,,,,,,2021-07-09 12:21:47+00:00,,,,,,,,
0,0,0,0,0,0,0.0069,0.239,0.7311,0.1847,0,0,0,0,0,0,0,0,0,0,0,0,0,0.0118,0.1333,0.8277,2.4493,3.6976,4.2301,5.4931,8.468,11.9931,10.7819,3.5667,0.2206,0.0024,26.4726,1.0261,10.92,0.075,0.9963,0.06,-5,2021,7,9,12,21,48,7/9/2021,12:21:48 PM,7/09/2021 12:21:48,6.554,183.02,53.0373,47,2371,2722,3217,0,23223,30512,0,0.87,5.56,12:21:48 PM,51.17139165,2.62909517,0.8,RTK       ,,,,,,,2021-07-09 12:21:48+00:00,,,,,,,,
0,0,0,0,0,0,0,0.0263,0.518,0.4888,0,0,0,0,0,0,0,0,0,0,0,0,0,0.0113,0.1309,0.8181,2.4125,3.6279,4.1992,5.6083,8.7851,11.9522,9.2244,2.1825,0.0743,0,26.6264,1.022,10.92,0.075,0.9974,0.07,-5,2021,7,9,12,21,49,7/9/2021,12:21:49 PM,7/09/2021 12:21:49,6.554,179.83,50.06,47,2372,2719,3216,0,23225,32858,0,0.866,5.767,12:21:49 PM,51.1713941,2.62910033,1,RTK       ,,,,,,,2021-07-09 12:21:49+00:00,,,,,,,,
0,0,0,0,0,0,0,0,0.0485,0.0416,0,0,0,0,0,0,0,0,0,0,0,0,0,0,0.0323,0.6256,2.8668,3.7686,3.4086,4.6641,9.0842,13.7332,7.0011,0.3768,0,0,24.5403,1.0261,10.92,0.075,0.9968,0.08,-5,2021,7,9,12,21,50,7/9/2021,12:21:50 PM,7/09/2021 12:21:50,6.554,187.63,45.6514,47,2369,2716,3219,0,23226,23600,0,0.87,5.584,12:21:50 PM,51.1713964,2.62910767,1.2,RTK       ,,,,,,,2021-07-09 12:21:50+00:00,,,,,,,,
0,0,0,0,0,0,0.019,0.3229,0.7529,0.1505,0,0,0,0,0,0,0,0,0,0,0,0,0,0.011,0.1298,0.826,2.4772,3.7457,4.2494,5.4627,8.4257,12.1114,11.1557,3.8226,0.2525,0.0031,26.5728,1.0199,10.91,0.075,0.9963,0.07,-5,2021,7,9,12,21,51,7/9/2021,12:21:51 PM,7/09/2021 12:21:51,6.554,182.96,53.9179,47,2371,2718,3217,0,23225,34991,0,0.865,5.801,12:21:51 PM,51.17139838,2.62911433,0.8,RTK       ,,,,,,,2021-07-09 12:21:51+00:00,,,,,,,,
0,0,0,0,0,0,0.0035,0.2172,0.7889,0.2109,0,0,0,0,0,0,0,0,0,0,0,0,0,0.0094,0.1187,0.7863,2.4025,3.6818,4.2567,5.5737,8.5838,12.0124,10.5447,3.3678,0.1951,0.0019,26.6334,1.024,10.92,0.075,0.9968,0.07,-5,2021,7,9,12,21,52,7/9/2021,12:21:52 PM,7/09/2021 12:21:52,6.554,181.83,52.7555,47,2376,2719,3213,0,23225,35976,0,0.868,5.664,12:21:52 PM,51.17139973,2.629119,0.7,RTK       ,,,,,,,2021-07-09 12:21:52+00:00,,,,,,,,
0,0,0,0,0,0.0382,0.3207,0.5484,0.418,0.0416,0,0,0,0,0,0,0,0,0,0,0,0,0,0.0153,0.1627,0.9565,2.7031,3.9246,4.2691,5.1815,7.6816,11.5667,13.2183,7.3149,1.116,0.0474,26.2613,1.022,10.91,0.075,0.9968,0.07,-5,2021,7,9,12,21,53,7/9/2021,12:21:53 PM,7/09/2021 12:21:53,6.554,190.27,59.5246,47,2370,2717,3220,0,23224,35526,0,0.866,5.744,12:21:53 PM,51.1714014,2.6291245,1,RTK       ,,,,,,,2021-07-09 12:21:53+00:00,,,,,,,,
0,0,0,0,0,0.0173,0.2374,0.6952,0.4314,0.0359,0,0,0,0,0,0,0,0,0,0,0,0,0,0.0126,0.1435,0.8982,2.673,3.9852,4.3247,5.1595,7.5083,11.3085,13.4865,8.3748,1.5817,0.0916,26.1222,1.0227,10.92,0.075,0.9968,0.07,-5,2021,7,9,12,21,54,7/9/2021,12:21:54 PM,7/09/2021 12:21:54,6.554,192.88,60.9654,47,2366,2712,3224,0,23225,34016,0,0.867,5.717,12:21:54 PM,51.17140348,2.62913133,1.1,RTK       ,,,,,,,2021-07-09 12:21:54+00:00,,,,,,,,
0,0,0,0,0,0.0032,0.0733,0.5678,0.6498,0.0783,0,0,0,0,0,0,0,0,0,0,0,0,0,0.0109,0.1293,0.831,2.5247,3.8557,4.3307,5.3521,7.9178,11.5794,12.3324,5.9586,0.7113,0.0205,26.3246,1.0247,10.91,0.075,0.9974,0.07,-5,2021,7,9,12,21,55,7/9/2021,12:21:55 PM,7/09/2021 12:21:55,6.554,186.99,56.9269,47,2373,2712,3216,0,23225,33570,0,0.868,5.661,12:21:55 PM,51.17140482,2.62913833,0.9,RTK       ,,,,,,,2021-07-09 12:21:55+00:00,,,,,,,,
0,0,0,0,0,0.0037,0.0851,0.6309,0.6125,0.0644,0,0,0,0,0,0,0,0,0,0,0,0,0,0.0113,0.1323,0.8511,2.5792,3.8956,4.2963,5.2228,7.7128,11.5522,12.9774,6.8178,0.9336,0.0333,26.098,1.024,10.91,0.075,0.9968,0.07,-5,2021,7,9,12,21,56,7/9/2021,12:21:56 PM,7/09/2021 12:21:56,6.554,189.27,58.4123,47,2378,2719,3210,0,23225,33196,0,0.868,5.664,12:21:56 PM,51.17140578,2.629144,0.7,RTK       ,,,,,,,2021-07-09 12:21:56+00:00,,,,,,,,
0,0,0,0,0,0,0,0.0942,0.7825,0.3511,0,0,0,0,0,0,0,0,0,0,0,0,0,0.0067,0.096,0.7044,2.3152,3.7047,4.3514,5.6727,8.6468,11.8092,9.6568,2.6347,0.1168,0,26.7257,1.0247,10.92,0.075,0.9968,0.05,-5,2021,7,9,12,21,57,7/9/2021,12:21:57 PM,7/09/2021 12:21:57,6.554,179.13,50.9432,47,2371,2719,3218,0,23221,34425,0,0.869,5.637,12:21:57 PM,51.17140703,2.6291495,0.9,RTK       ,,,,,,,2021-07-09 12:21:57+00:00,,,,,,,,
0,0,0,0,0,0,0.0031,0.2306,0.8647,0.2184,0,0,0,0,0,0,0,0,0,0,0,0,0,0.0069,0.0972,0.7102,2.3446,3.7605,4.3712,5.5857,8.4253,11.8439,10.5275,3.3613,0.1941,0.0019,26.6184,1.022,10.91,0.075,0.9963,0.07,-5,2021,7,9,12,21,58,7/9/2021,12:21:58 PM,7/09/2021 12:21:58,6.554,180.6,52.547,47,2366,2713,3226,0,23225,35124,0,0.867,5.72,12:21:58 PM,51.1714083,2.62915667,1.1,RTK       ,,,,,,,2021-07-09 12:21:58+00:00,,,,,,,,
0,0,0,0,0,0,0,0,0.1456,0.8353,0,0,0,0,0,0,0,0,0,0,0,0,0,0.0061,0.0862,0.6516,2.2131,3.5955,4.2972,5.8125,9.0057,11.4539,7.3763,1.2161,0.0222,0,26.6488,1.024,10.91,0.075,0.9968,0.06,-5,2021,7,9,12,21,59,7/9/2021,12:21:59 PM,7/09/2021 12:21:59,6.554,176.18,46.7171,47,2371,2715,3221,0,23223,37008,0,0.868,5.664,12:21:59 PM,51.17140935,2.629164,0.9,RTK       ,,,,,,,2021-07-09 12:21:59+00:00,,,,,,,,
0,0,0,0,0,0,0,0.0061,0.4099,0.8049,0,0,0,0,0,0,0,0,0,0,0,0,0,0.005,0.078,0.6188,2.175,3.6591,4.4165,5.82,8.8229,11.453,7.9219,1.5144,0.0362,0,26.8162,1.0254,10.92,0.075,0.9968,0.06,-5,2021,7,9,12,22,0,7/9/2021,12:22:00 PM,7/09/2021 12:22:00,6.554,174.53,47.7416,47,2377,2721,3212,0,23223,37153,0,0.869,5.611,12:22:00 PM,51.17141065,2.6291695,0.7,RTK       ,,,,,,,2021-07-09 12:22:00+00:00,,,,,,,,
0,0,0,0,0,0,0,0.0011,0.2142,1.0401,0.0011,0,0,0,0,0,0,0,0,0,0,0,0,0.0038,0.0663,0.5706,2.0977,3.593,4.4141,5.954,9.0592,11.3394,7.2387,1.2073,0.0233,0,27.0152,1.024,10.91,0.075,0.9957,0.06,-5,2021,7,9,12,22,1,7/9/2021,12:22:01 PM,7/09/2021 12:22:01,6.554,172.74,46.8241,47,2378,2722,3209,0,23223,37168,0,0.869,5.617,12:22:01 PM,51.17141228,2.62917517,0.9,RTK       ,,,,,,,2021-07-09 12:22:01+00:00,,,,,,,,
0,0,0,0,0,0,0,0,0.1803,1.0694,0.0012,0,0,0,0,0,0,0,0,0,0,0,0,0.0044,0.0738,0.6067,2.1402,3.5909,4.388,5.9122,8.974,11.2477,7.2205,1.1996,0.0227,0,26.9411,1.0254,10.92,0.075,0.9957,0.06,-5,2021,7,9,12,22,2,7/9/2021,12:22:02 PM,7/09/2021 12:22:02,6.554,172.48,46.6316,47,2368,2719,3223,0,23223,37184,0,0.87,5.563,12:22:02 PM,51.17141363,2.629182,1,RTK       ,,,,,,,2021-07-09 12:22:02+00:00,,,,,,,,
0,0,0,0,0,0,0,0,0.1934,1.091,0.0012,0,0,0,0,0,0,0,0,0,0,0,0,0.0042,0.0704,0.5782,2.0705,3.5585,4.4436,6.039,9.1649,11.4009,7.2036,1.175,0.0219,0,27.2149,1.0206,10.92,0.075,0.9951,0.05,-5,2021,7,9,12,22,3,7/9/2021,12:22:03 PM,7/09/2021 12:22:03,6.554,172.41,47.0163,46,2366,2714,3229,0,23221,37177,0,0.867,5.727,12:22:03 PM,51.1714147,2.62918867,0.8,RTK       ,,,,,,,2021-07-09 12:22:03+00:00,,,,,,,,
0,0,0,0,0,0,0,0,0.1946,1.0982,0.0013,0,0,0,0,0,0,0,0,0,0,0,0,0.0037,0.0636,0.5538,2.0829,3.6363,4.4652,5.9403,8.9573,11.2549,7.2499,1.2146,0.0233,0,26.9972,1.0247,10.91,0.075,0.9968,0.05,-5,2021,7,9,12,22,4,7/9/2021,12:22:04 PM,7/09/2021 12:22:04,6.554,172.18,46.7397,47,2374,2716,3219,0,23222,37173,0,0.869,5.637,12:22:04 PM,51.17141498,2.6291945,0.8,RTK       ,,,,,,,2021-07-09 12:22:04+00:00,,,,,,,,
0,0,0,0,0,0,0,0.0011,0.2136,1.0767,0.0012,0,0,0,0,0,0,0,0,0,0,0,0,0.0042,0.0708,0.5855,2.0979,3.586,4.4192,5.9329,8.9825,11.3111,7.3978,1.2923,0.027,0,26.9716,1.0247,10.9,0.075,0.9957,0.05,-5,2021,7,9,12,22,5,7/9/2021,12:22:05 PM,7/09/2021 12:22:05,6.554,172.66,46.9997,47,2379,2724,3208,0,23222,37174,0,0.87,5.59,12:22:05 PM,51.17141513,2.6292005,0.8,RTK       ,,,,,,,2021-07-09 12:22:05+00:00,,,,,,,,
0,0,0,0,0,0,0,0.0013,0.2191,1.09,0.0015,0,0,0,0,0,0,0,0,0,0,0,0,0.0042,0.0704,0.588,2.138,3.6662,4.4706,5.901,8.868,11.3053,7.7104,1.4666,0.0351,0,27.0183,1.0227,10.91,0.075,0.9957,0.07,-5,2021,7,9,12,22,6,7/9/2021,12:22:06 PM,7/09/2021 12:22:06,6.554,173.07,47.5357,47,2373,2720,3217,0,23224,37171,0,0.868,5.67,12:22:06 PM,51.17141605,2.62920633,0.8,RTK       ,,,,,,,2021-07-09 12:22:06+00:00,,,,,,,,
0,0,0,0,0,0,0,0,0.171,1.1009,0.0019,0,0,0,0,0,0,0,0,0,0,0,0,0.0049,0.077,0.6159,2.1696,3.6639,4.4739,5.9224,8.8536,11.2476,7.6403,1.4166,0.0319,0,27.055,1.0234,10.89,0.075,0.9963,0.06,-5,2021,7,9,12,22,7,7/9/2021,12:22:07 PM,7/09/2021 12:22:07,6.554,173.1,47.3914,47,2367,2716,3228,0,23223,37177,0,0.868,5.667,12:22:07 PM,51.17141665,2.629212,0.7,RTK       ,,,,,,,2021-07-09 12:22:07+00:00,,,,,,,,
0,0,0,0,0,0,0,0.0011,0.1908,1.0894,0.0024,0,0,0,0,0,0,0,0,0,0,0,0,0.0058,0.0863,0.652,2.2002,3.6384,4.4194,5.8761,8.8806,11.4588,8.0248,1.6091,0.0431,0,27.0425,1.0247,10.92,0.075,0.9957,0.05,-5,2021,7,9,12,22,8,7/9/2021,12:22:08 PM,7/09/2021 12:22:08,6.554,174.18,48.1784,47,2371,2720,3220,0,23222,37173,0,0.87,5.59,12:22:08 PM,51.17141717,2.629217,0.6,RTK       ,,,,,,,2021-07-09 12:22:08+00:00,,,,,,,,
0,0,0,0,0,0,0,0,0.1362,1.088,0.0029,0,0,0,0,0,0,0,0,0,0,0,0,0.0061,0.0892,0.6713,2.2497,3.6453,4.3532,5.8073,8.8467,11.3425,7.6696,1.4291,0.0337,0,26.8959,1.0261,10.92,0.075,0.9945,0.05,-5,2021,7,9,12,22,9,7/9/2021,12:22:09 PM,7/09/2021 12:22:09,6.554,173.66,47.3708,47,2377,2719,3212,0,23222,37177,0,0.872,5.49,12:22:09 PM,51.17141832,2.629221,0.6,RTK       ,,,,,,,2021-07-09 12:22:09+00:00,,,,,,,,
0,0,0,0,0,0,0,0,0.1136,1.09,0.0041,0,0,0,0,0,0,0,0,0,0,0,0,0.0073,0.097,0.6874,2.2368,3.6119,4.3455,5.8282,8.8946,11.3808,7.7063,1.4402,0.0342,0,26.9164,1.0254,10.92,0.075,0.9951,0.05,-5,2021,7,9,12,22,10,7/9/2021,12:22:10 PM,7/09/2021 12:22:10,6.554,174.07,47.4778,47,2377,2720,3214,0,23221,37184,0,0.871,5.54,12:22:10 PM,51.1714196,2.62922517,0.6,RTK       ,,,,,,,2021-07-09 12:22:10+00:00,,,,,,,,
0,0,0,0,0,0,0,0,0.0895,1.0814,0.0057,0,0,0,0,0,0,0,0,0,0,0,0,0.008,0.1047,0.7273,2.3112,3.6664,4.3768,5.8403,8.8433,11.3081,7.7867,1.5121,0.0376,0,27.0546,1.0213,10.91,0.075,0.9951,0.05,-5,2021,7,9,12,22,11,7/9/2021,12:22:11 PM,7/09/2021 12:22:11,6.554,174.29,47.6992,46,2369,2725,3223,0,23222,37186,0,0.867,5.7,12:22:11 PM,51.17142053,2.629229,0.5,RTK       ,,,,,,,2021-07-09 12:22:11+00:00,,,,,,,,
0,0,0,0,0,0,0,0,0.0244,1.0373,0.0173,0,0,0,0,0,0,0,0,0,0,0,0,0.0091,0.1121,0.7508,2.3434,3.6748,4.3482,5.8018,8.8627,11.2745,7.3185,1.2423,0.025,0,26.9819,1.024,10.91,0.075,0.9939,0.05,-5,2021,7,9,12,22,12,7/9/2021,12:22:12 PM,7/09/2021 12:22:12,6.554,173.97,46.8422,47,2369,2718,3226,0,23222,37193,0,0.871,5.546,12:22:12 PM,51.17142103,2.6292315,0.3,RTK       ,,,,,,,2021-07-09 12:22:12+00:00,,,,,,,,
0,0,0,0,0,0,0,0,0.0053,0.9323,0.0551,0,0,0,0,0,0,0,0,0,0,0,0,0.0113,0.1231,0.7762,2.3652,3.6798,4.3805,5.91,8.9706,10.9764,6.5513,0.9589,0.015,0,27.2094,1.0261,10.91,0.075,0.9957,0.05,-5,2021,7,9,12,22,13,7/9/2021,12:22:13 PM,7/09/2021 12:22:13,6.554,172.64,45.711,47,2377,2717,3215,0,23222,37213,0,0.871,5.537,12:22:13 PM,51.17142115,2.62923417,0.4,RTK       ,,,,,,,2021-07-09 12:22:13+00:00,,,,,,,,
0,0,0,0,0,0,0,0,0.0062,0.9537,0.0613,0,0,0,0,0,0,0,0,0,0,0,0,0.0116,0.1263,0.7864,2.3716,3.6905,4.4011,5.9129,8.9392,11.0913,7.0091,1.1377,0.0207,0,27.2608,1.024,10.91,0.075,0.9963,0.04,-5,2021,7,9,12,22,14,7/9/2021,12:22:14 PM,7/09/2021 12:22:14,6.554,173.51,46.5196,47,2376,2725,3211,0,23220,37213,0,0.868,5.64,12:22:14 PM,51.17142127,2.62923783,0.5,RTK       ,,,,,,,2021-07-09 12:22:14+00:00,,,,,,,,
0,0,0,0,0,0,0,0,0.0293,1.1183,0.019,0,0,0,0,0,0,0,0,0,0,0,0,0.007,0.0944,0.6811,2.2616,3.717,4.5052,6.0034,8.9416,11.0315,7.0869,1.2315,0.0261,0,27.3779,1.0254,10.92,0.075,0.9963,0.06,-5,2021,7,9,12,22,15,7/9/2021,12:22:15 PM,7/09/2021 12:22:15,6.554,172.45,46.754,47,2369,2718,3225,0,23223,37200,0,0.87,5.587,12:22:15 PM,51.17142108,2.62924117,0.3,RTK       ,,,,,,,2021-07-09 12:22:15+00:00,,,,,,,,
0,0,0,0,0,0,0,0.0023,0.3406,1.4693,0.0022,0,0,0,0,0,0,0,0,0,0,0,0,0.0023,0.0487,0.4778,1.9287,3.5612,4.552,6.108,9.1021,11.2816,7.2856,1.2695,0.0269,0,27.5952,1.022,10.9,0.075,0.9951,0.06,-5,2021,7,9,12,22,16,7/9/2021,12:22:16 PM,7/09/2021 12:22:16,6.554,166.69,47.4588,47,2368,2717,3229,0,23223,37176,0,0.868,5.673,12:22:16 PM,51.17142078,2.62924233,0.1,RTK       ,,,,,,,2021-07-09 12:22:16+00:00,,,,,,,,
0,0,0,0,0,0.0013,0.2258,1.3747,0.4197,0.0148,0,0,0,0,0,0,0,0,0,0,0,0,0,0.0075,0.1096,0.7985,2.5952,4.0914,4.5097,5.1722,7.0774,10.42,13.3189,10.2073,2.8621,0.302,26.3978,1.0254,10.91,0.075,0.9957,0.05,-5,2021,7,9,12,22,17,7/9/2021,12:22:17 PM,7/09/2021 12:22:17,6.554,191.23,63.5082,47,2377,2721,3210,0,23221,36393,0,0.87,5.563,12:22:17 PM,51.17142045,2.62924267,0.1,RTK       ,,,,,,,2021-07-09 12:22:17+00:00,,,,,,,,
0,0,0,0,0.003,0.0646,0.3744,0.7972,0.2661,0.0123,0,0,0,0,0,0,0,0,0,0,0,0,0,0.0145,0.1646,0.9919,2.8299,4.1097,4.3403,4.9333,6.8139,10.2201,13.4234,10.7317,3.2415,0.3831,25.7157,1.0295,10.9,0.075,0.9957,0.05,-5,2021,7,9,12,22,18,7/9/2021,12:22:18 PM,7/09/2021 12:22:18,6.554,197.93,63.7155,47,2378,2721,3211,0,23221,31171,0,0.874,5.404,12:22:18 PM,51.1714207,2.62924317,0.1,RTK       ,,,,,,,2021-07-09 12:22:18+00:00,,,,,,,,
0,0,0,0,0.001,0.0394,0.2949,0.8081,0.3399,0.0181,0,0,0,0,0,0,0,0,0,0,0,0,0,0.0139,0.1574,0.9506,2.731,4.0153,4.3363,5.0692,7.1509,10.654,13.2671,9.4126,2.3193,0.2039,25.926,1.0275,10.9,0.075,0.9963,0.05,-5,2021,7,9,12,22,19,7/9/2021,12:22:19 PM,7/09/2021 12:22:19,6.554,194.33,61.7828,47,2370,2724,3226,0,23221,28441,0,0.871,5.507,12:22:19 PM,51.17142148,2.62924333,0.2,RTK       ,,,,,,,2021-07-09 12:22:19+00:00,,,,,,,,
0,0,0,0,0,0.0278,0.2447,0.7985,0.3991,0.024,0,0,0,0,0,0,0,0,0,0,0,0,0,0.0114,0.1364,0.885,2.6902,4.0733,4.4338,5.1627,7.2311,10.7067,13.0973,8.8363,1.9471,0.1408,26.118,1.0261,10.9,0.075,0.9963,0.05,-5,2021,7,9,12,22,20,7/9/2021,12:22:20 PM,7/09/2021 12:22:20,6.554,192.57,60.8463,47,2368,2722,3225,0,23221,27204,0,0.87,5.56,12:22:20 PM,51.17142203,2.62924233,0.3,RTK       ,,,,,,,2021-07-09 12:22:20+00:00,,,,,,,,
0,0,0,0,0,0.022,0.2125,0.776,0.4397,0.0288,0,0,0,0,0,0,0,0,0,0,0,0,0,0.0124,0.1429,0.8916,2.6519,4.0073,4.419,5.2594,7.4905,11.0155,12.8836,7.9354,1.5171,0.0907,26.354,1.0247,10.91,0.075,0.9957,0.05,-5,2021,7,9,12,22,21,7/9/2021,12:22:21 PM,7/09/2021 12:22:21,6.554,190.33,59.7962,47,2376,2719,3216,0,23221,26240,0,0.87,5.59,12:22:21 PM,51.17142162,2.62924017,0.3,RTK       ,,,,,,,2021-07-09 12:22:21+00:00,,,,,,,,
0,0,0,0,0,0.0396,0.2885,0.7749,0.3617,0.021,0,0,0,0,0,0,0,0,0,0,0,0,0,0.0138,0.1526,0.9196,2.6761,4.0294,4.4485,5.2453,7.3564,10.7387,12.8607,8.5197,1.8793,0.1399,26.3274,1.0268,10.9,0.075,0.9957,0.05,-5,2021,7,9,12,22,22,7/9/2021,12:22:22 PM,7/09/2021 12:22:22,6.554,191.61,60.4657,47,2378,2720,3213,0,23221,25156,0,0.871,5.51,12:22:22 PM,51.1714209,2.62923817,0.3,RTK       ,,,,,,,2021-07-09 12:22:22+00:00,,,,,,,,
0,0,0,0,0,0.0367,0.2723,0.7671,0.3762,0.0227,0,0,0,0,0,0,0,0,0,0,0,0,0,0.0127,0.1409,0.8741,2.6414,4.0553,4.4673,5.2194,7.2942,10.7189,12.8731,8.4806,1.8373,0.1321,26.1803,1.0275,10.9,0.075,0.9957,0.05,-5,2021,7,9,12,22,23,7/9/2021,12:22:23 PM,7/09/2021 12:22:23,6.554,191.76,60.2223,47,2371,2726,3222,0,23222,23943,0,0.872,5.484,12:22:23 PM,51.17142017,2.629237,0.3,RTK       ,,,,,,,2021-07-09 12:22:23+00:00,,,,,,,,
0,0,0,0,0,0.0251,0.2277,0.7744,0.4161,0.0263,0,0,0,0,0,0,0,0,0,0,0,0,0,0.0118,0.1399,0.8908,2.6798,4.0447,4.4108,5.1875,7.3595,10.8614,12.9428,8.2721,1.6711,0.1077,26.1944,1.024,10.91,0.075,0.9951,0.05,-5,2021,7,9,12,22,24,7/9/2021,12:22:24 PM,7/09/2021 12:22:24,6.554,191.26,60.0494,47,2369,2717,3224,0,23221,22851,0,0.87,5.593,12:22:24 PM,51.17141907,2.6292355,0.4,RTK       ,,,,,,,2021-07-09 12:22:24+00:00,,,,,,,,
0,0,0,0,0.0057,0.1138,0.4652,0.6624,0.2201,0.0108,0,0,0,0,0,0,0,0,0,0,0,0,0,0.0155,0.1644,0.9723,2.7942,4.103,4.3708,5.0181,7.0046,10.4716,13.383,10.2372,2.9129,0.3176,25.9209,1.0254,10.9,0.075,0.9957,0.03,-5,2021,7,9,12,22,25,7/9/2021,12:22:25 PM,7/09/2021 12:22:25,6.554,196.83,63.2431,47,2375,2717,3218,0,23219,22479,0,0.87,5.563,12:22:25 PM,51.17141762,2.62923233,0.6,RTK       ,,,,,,,2021-07-09 12:22:25+00:00,,,,,,,,
0,0,0,0,0,0.0047,0.0883,0.6345,0.6369,0.0619,0,0,0,0,0,0,0,0,0,0,0,0,0,0.0103,0.1263,0.8243,2.5285,3.9301,4.4584,5.437,7.8342,11.2827,11.9862,5.8698,0.7362,0.0231,26.5754,1.022,10.91,0.075,0.9939,0.05,-5,2021,7,9,12,22,26,7/9/2021,12:22:26 PM,7/09/2021 12:22:26,6.554,185.31,56.4735,47,2373,2723,3218,0,23222,21223,0,0.869,5.626,12:22:26 PM,51.17141633,2.62922817,0.6,RTK       ,,,,,,,2021-07-09 12:22:26+00:00,,,,,,,,
0,0,0,0,0,0,0.0175,0.399,0.8196,0.1261,0,0,0,0,0,0,0,0,0,0,0,0,0,0.0088,0.1153,0.7769,2.417,3.803,4.4359,5.6249,8.28,11.4462,10.4385,3.7466,0.2792,0.0041,26.824,1.0234,10.9,0.075,0.9963,0.04,-5,2021,7,9,12,22,27,7/9/2021,12:22:27 PM,7/09/2021 12:22:27,6.554,179.85,52.7385,47,2371,2723,3223,0,23220,21595,0,0.868,5.667,12:22:27 PM,51.17141527,2.62922433,0.5,RTK       ,,,,,,,2021-07-09 12:22:27+00:00,,,,,,,,
0,0,0,0,0,0.001,0.0361,0.5078,0.7419,0.0923,0,0,0,0,0,0,0,0,0,0,0,0,0,0.009,0.1177,0.7985,2.4899,3.8881,4.4626,5.5444,8.0439,11.306,11.1433,4.6855,0.4514,0.0095,26.7332,1.0234,10.89,0.075,0.9945,0.05,-5,2021,7,9,12,22,28,7/9/2021,12:22:28 PM,7/09/2021 12:22:28,6.554,182.27,54.3289,47,2375,2718,3218,0,23222,21940,0,0.869,5.596,12:22:28 PM,51.17141508,2.62921967,0.7,RTK       ,,,,,,,2021-07-09 12:22:28+00:00,,,,,,,,
0,0,0,0,0,0.0021,0.0553,0.5643,0.6837,0.0754,0,0,0,0,0,0,0,0,0,0,0,0,0,0.0105,0.1286,0.836,2.5515,3.9368,4.4407,5.4285,7.8671,11.2351,11.4765,5.1909,0.5766,0.0153,26.5805,1.0247,10.88,0.075,0.9957,0.05,-5,2021,7,9,12,22,29,7/9/2021,12:22:29 PM,7/09/2021 12:22:29,6.554,183.53,55.0749,47,2376,2723,3215,0,23222,22054,0,0.87,5.59,12:22:29 PM,51.1714142,2.62921417,0.9,RTK       ,,,,,,,2021-07-09 12:22:29+00:00,,,,,,,,
0,0,0,0,0,0.0031,0.0673,0.5735,0.664,0.0718,0,0,0,0,0,0,0,0,0,0,0,0,0,0.0098,0.1204,0.8125,2.5779,4.0406,4.5434,5.5036,7.9138,11.2347,11.434,5.1833,0.5844,0.0159,26.9017,1.0227,10.9,0.075,0.9951,0.05,-5,2021,7,9,12,22,30,7/9/2021,12:22:30 PM,7/09/2021 12:22:30,6.554,183.25,55.3541,47,2369,2725,3221,0,23221,22100,0,0.868,5.647,12:22:30 PM,51.17141242,2.62920817,1,RTK       ,,,,,,,2021-07-09 12:22:30+00:00,,,,,,,,
0,0,0,0,0,0.0051,0.0885,0.6033,0.6206,0.0628,0,0,0,0,0,0,0,0,0,0,0,0,0,0.0124,0.1466,0.8999,2.6032,3.888,4.3721,5.4277,7.9845,11.4655,11.8501,5.5532,0.6637,0.0198,26.7147,1.0213,10.89,0.075,0.9957,0.05,-5,2021,7,9,12,22,31,7/9/2021,12:22:31 PM,7/09/2021 12:22:31,6.554,184.83,56.2671,47,2370,2723,3226,0,23222,22038,0,0.867,5.724,12:22:31 PM,51.17141068,2.62920217,0.8,RTK       ,,,,,,,2021-07-09 12:22:31+00:00,,,,,,,,
0,0,0,0,0,0.0059,0.0965,0.6124,0.6045,0.0597,0,0,0,0,0,0,0,0,0,0,0,0,0,0.0126,0.1463,0.9016,2.6285,3.9132,4.3361,5.3085,7.8065,11.3899,12.0686,5.8456,0.7376,0.0235,26.4323,1.0213,10.91,0.075,0.9951,0.05,-5,2021,7,9,12,22,32,7/9/2021,12:22:32 PM,7/09/2021 12:22:32,6.554,185.72,56.4974,47,2377,2716,3218,0,23221,21895,0,0.867,5.7,12:22:32 PM,51.17140882,2.62919717,0.9,RTK       ,,,,,,,2021-07-09 12:22:32+00:00,,,,,,,,
0,0,0,0,0,0.0055,0.0937,0.6061,0.6077,0.061,0,0,0,0,0,0,0,0,0,0,0,0,0,0.0126,0.1436,0.8791,2.5906,3.9174,4.3716,5.3252,7.7847,11.3811,12.1754,5.9909,0.7541,0.0236,26.3988,1.0206,10.9,0.075,0.9939,0.04,-5,2021,7,9,12,22,33,7/9/2021,12:22:33 PM,7/09/2021 12:22:33,6.554,186.3,56.7239,47,2376,2718,3212,0,23220,21808,0,0.868,5.68,12:22:33 PM,51.17140612,2.62919117,1.1,RTK       ,,,,,,,2021-07-09 12:22:33+00:00,,,,,,,,
0,0,0,0,0,0.0078,0.1132,0.6299,0.5685,0.054,0,0,0,0,0,0,0,0,0,0,0,0,0,0.0137,0.1474,0.885,2.5968,3.9388,4.4265,5.4123,7.8357,11.2528,12.0399,6.12,0.8368,0.0302,26.6296,1.0234,10.89,0.075,0.9951,0.03,-5,2021,7,9,12,22,34,7/9/2021,12:22:34 PM,7/09/2021 12:22:34,6.554,186.3,56.9093,47,2370,2722,3216,0,23219,21616,0,0.869,5.62,12:22:34 PM,51.17140335,2.6291835,1.2,RTK       ,,,,,,,2021-07-09 12:22:34+00:00,,,,,,,,
0,0,0,0,0,0.0036,0.0697,0.537,0.6639,0.0783,0,0,0,0,0,0,0,0,0,0,0,0,0,0.0119,0.133,0.8274,2.5088,3.8962,4.4368,5.4734,7.9673,11.3588,11.4705,5.0866,0.5435,0.0134,26.6073,1.0254,10.9,0.075,0.9957,0.04,-5,2021,7,9,12,22,35,7/9/2021,12:22:35 PM,7/09/2021 12:22:35,6.554,183.83,55.08,47,2370,2725,3228,0,23220,21395,0,0.87,5.563,12:22:35 PM,51.17140075,2.6291765,1.1,RTK       ,,,,,,,2021-07-09 12:22:35+00:00,,,,,,,,
0,0,0,0,0,0.0087,0.1242,0.6695,0.5352,0.0479,0,0,0,0,0,0,0,0,0,0,0,0,0,0.0157,0.1638,0.9411,2.6506,3.9295,4.3802,5.3332,7.7036,11.1977,12.4325,6.8167,1.0611,0.0464,26.5032,1.0213,10.9,0.075,0.9945,0.05,-5,2021,7,9,12,22,36,7/9/2021,12:22:36 PM,7/09/2021 12:22:36,6.554,188.1,58.0575,47,2376,2720,3221,0,23221,21605,0,0.868,5.677,12:22:36 PM,51.17139842,2.62916917,1.2,RTK       ,,,,,,,2021-07-09 12:22:36+00:00,,,,,,,,
0,0,0,0,0,0.0328,0.2578,0.7261,0.366,0.0245,0,0,0,0,0,0,0,0,0,0,0,0,0.0011,0.0199,0.1849,0.9962,2.7138,3.9482,4.3458,5.2079,7.422,10.9786,13.2608,8.9102,2.0106,0.1555,26.247,1.0213,10.9,0.075,0.9945,0.03,-5,2021,7,9,12,22,37,7/9/2021,12:22:37 PM,7/09/2021 12:22:37,6.554,193.94,61.5627,47,2377,2721,3214,0,23219,20469,0,0.868,5.677,12:22:37 PM,51.1713964,2.62916067,1.3,RTK       ,,,,,,,2021-07-09 12:22:37+00:00,,,,,,,,
0,0,0,0,0,0.0381,0.2579,0.6864,0.3728,0.0267,0,0,0,0,0,0,0,0,0,0,0,0,0,0.017,0.1717,0.9862,2.7809,4.0568,4.3839,5.1819,7.3785,10.9027,13.0068,8.4195,1.7649,0.1208,26.3388,1.022,10.9,0.075,0.9957,0.05,-5,2021,7,9,12,22,38,7/9/2021,12:22:38 PM,7/09/2021 12:22:38,6.554,192.28,60.5536,47,2372,2723,3218,0,23222,21118,0,0.867,5.697,12:22:38 PM,51.17139433,2.62915133,1.3,RTK       ,,,,,,,2021-07-09 12:22:38+00:00,,,,,,,,
0,0,0,0,0.0019,0.0623,0.3125,0.6531,0.3165,0.0219,0,0,0,0,0,0,0,0,0,0,0,0,0.0013,0.022,0.1945,1.021,2.7741,4.0361,4.3828,5.1489,7.2472,10.7195,13.1481,9.0692,2.0939,0.1635,26.1961,1.0227,10.9,0.075,0.9957,0.05,-5,2021,7,9,12,22,39,7/9/2021,12:22:39 PM,7/09/2021 12:22:39,6.554,194.13,61.3905,47,2370,2720,3224,0,23221,20708,0,0.868,5.67,12:22:39 PM,51.17139187,2.62914233,1.4,RTK       ,,,,,,,2021-07-09 12:22:39+00:00,,,,,,,,
0,0,0,0,0,0.0016,0.0413,0.4291,0.7205,0.107,0,0,0,0,0,0,0,0,0,0,0,0,0,0.0099,0.1194,0.7917,2.4828,3.8918,4.4685,5.6179,8.2582,11.4632,10.7956,4.1977,0.3553,0.0061,26.9397,1.0206,10.89,0.075,0.9957,0.05,-5,2021,7,9,12,22,40,7/9/2021,12:22:40 PM,7/09/2021 12:22:40,6.554,181.79,53.7577,47,2374,2719,3223,0,23221,20337,0,0.866,5.75,12:22:40 PM,51.1713889,2.6291325,1.6,RTK       ,,,,,,,2021-07-09 12:22:40+00:00,,,,,,,,
0,0,0,0,0,0,0,0.0598,0.6804,0.3901,0,0,0,0,0,0,0,0,0,0,0,0,0,0.0111,0.1221,0.7567,2.3157,3.7095,4.482,5.9097,8.7585,11.3173,8.5617,2.1025,0.081,0,27.1956,1.0213,10.9,0.075,0.9933,0.05,-5,2021,7,9,12,22,41,7/9/2021,12:22:41 PM,7/09/2021 12:22:41,6.554,176.71,49.2582,47,2377,2722,3216,0,23221,22405,0,0.869,5.629,12:22:41 PM,51.1713849,2.62912367,1.4,RTK       ,,,,,,,2021-07-09 12:22:41+00:00,,,,,,,,
0,0,0,0,0,0,0,0,0.0526,0.5267,0,0,0,0,0,0,0,0,0,0,0,0,0,0.0043,0.0834,0.8056,2.8448,3.8082,3.7352,5.1423,9.422,12.9731,5.9203,0.2869,0,0,26.4251,1.022,10.89,0.075,0.9945,0.05,-5,2021,7,9,12,22,42,7/9/2021,12:22:42 PM,7/09/2021 12:22:42,6.554,177.12,45.6056,47,2373,2724,3216,0,23221,31765,0,0.868,5.65,12:22:42 PM,51.17138105,2.62911483,1.5,RTK       ,,,,,,,2021-07-09 12:22:42+00:00,,,,,,,,
0,0,0,0,0,0,0,0,0.1201,0.6318,0,0,0,0,0,0,0,0,0,0,0,0,0,0.0129,0.1297,0.7771,2.3204,3.6183,4.3564,5.9387,9.0213,11.0721,6.8191,1.0832,0.0193,0,26.9267,1.022,10.9,0.075,0.9945,0.05,-5,2021,7,9,12,22,43,7/9/2021,12:22:43 PM,7/09/2021 12:22:43,6.554,176.66,45.9202,47,2370,2723,3225,0,23221,36988,0,0.868,5.65,12:22:43 PM,51.17137702,2.62910467,1.7,RTK       ,,,,,,,2021-07-09 12:22:43+00:00,,,,,,,,
0,0,0,0,0,0,0,0,0.0907,1.0286,0.0049,0,0,0,0,0,0,0,0,0,0,0,0,0.0115,0.1237,0.756,2.2641,3.5727,4.3681,5.9656,9.0559,11.2709,7.2972,1.2801,0.0274,0,27.2418,1.0206,10.91,0.075,0.9951,0.04,-5,2021,7,9,12,22,44,7/9/2021,12:22:44 PM,7/09/2021 12:22:44,6.554,173.69,47.1174,47,2376,2721,3222,0,23220,37178,0,0.867,5.727,12:22:44 PM,51.17137327,2.62909367,1.7,RTK       ,,,,,,,2021-07-09 12:22:44+00:00,,,,,,,,
0,0,0,0,0,0,0,0.024,0.6168,0.8935,0.0026,0,0,0,0,0,0,0,0,0,0,0,0,0.0136,0.1418,0.8398,2.468,3.8305,4.4588,5.6201,8.2134,11.532,11.5072,5.1487,0.5769,0.0157,27.1229,1.0213,10.89,0.075,0.9951,0.04,-5,2021,7,9,12,22,45,7/9/2021,12:22:45 PM,7/09/2021 12:22:45,6.554,182.93,55.9034,47,2377,2727,3215,0,23220,36893,0,0.867,5.7,12:22:45 PM,51.1713697,2.62908233,1.8,RTK       ,,,,,,,2021-07-09 12:22:45+00:00,,,,,,,,
2.6292,0.9192,0.4058,0.1451,0.0454,0.0137,0.0039,0,0,0,0,0,0,0,0,0,0,0,0,0,0,0,0.0035,0.0347,0.2618,1.2269,3.0597,4.2089,4.3367,4.714,6.1432,9.0412,13.3389,15.4076,9.6314,3.5904,28.1517,1.0206,10.89,0.075,0.9945,0.04,-5,2021,7,9,12,22,46,7/9/2021,12:22:46 PM,7/09/2021 12:22:46,6.554,183.07,79.1612,47,2373,2730,3219,0,23220,28311,0,0.867,5.703,12:22:46 PM,51.17136647,2.62907033,1.8,RTK       ,,,,,,,2021-07-09 12:22:46+00:00,,,,,,,,
0,0,0,0,0,0.0137,0.1377,0.5573,0.4975,0.0573,0,0,0,0,0,0,0,0,0,0,0,0,0.0016,0.0253,0.2028,1.0008,2.62,3.8168,4.3246,5.3894,7.8321,11.3259,12.4637,6.689,0.9905,0.0399,26.4769,1.0213,10.89,0.075,0.9957,0.03,-5,2021,7,9,12,22,47,7/9/2021,12:22:47 PM,7/09/2021 12:22:47,6.554,189.25,57.9859,47,2373,2725,3224,0,23218,18577,0,0.867,5.724,12:22:47 PM,51.171363,2.62905817,1.8,RTK       ,,,,,,,2021-07-09 12:22:47+00:00,,,,,,,,
0,0,0,0,0,0.0066,0.094,0.5111,0.5518,0.0727,0,0,0,0,0,0,0,0,0,0,0,0,0.0014,0.0223,0.187,0.9661,2.5977,3.7983,4.3059,5.4377,8.0481,11.594,12.1825,5.9102,0.7422,0.0237,26.6007,1.0206,10.9,0.075,0.9951,0.03,-5,2021,7,9,12,22,48,7/9/2021,12:22:48 PM,7/09/2021 12:22:48,6.554,187.79,57.0532,47,2374,2732,3225,0,23219,18455,0,0.867,5.727,12:22:48 PM,51.17135855,2.6290465,1.9,RTK       ,,,,,,,2021-07-09 12:22:48+00:00,,,,,,,,
0,0,0,0,0,0.0034,0.0601,0.4216,0.6088,0.0994,0,0,0,0,0,0,0,0,0,0,0,0,0.0014,0.024,0.1994,0.9985,2.5874,3.7073,4.2349,5.4748,8.2501,11.6935,11.3784,4.7488,0.4681,0.0104,26.6711,1.0227,10.89,0.075,0.9939,0.03,-5,2021,7,9,12,22,49,7/9/2021,12:22:49 PM,7/09/2021 12:22:49,6.554,184.8,54.9702,47,2377,2726,3217,0,23219,18550,0,0.869,5.6,12:22:49 PM,51.1713536,2.62903383,2.1,RTK       ,,,,,,,2021-07-09 12:22:49+00:00,,,,,,,,
0,0,0,0,0,0,0,0,0.017,0.0823,0,0,0,0,0,0,0,0,0,0,0,0,0,0.0086,0.1395,1.0895,3.0962,3.5124,3.3007,4.8375,9.5273,13.5638,6.1651,0.2878,0,0,25.611,1.0165,10.89,0.075,0.9933,0.04,-5,2021,7,9,12,22,50,7/9/2021,12:22:50 PM,7/09/2021 12:22:50,6.554,183.99,45.6275,47,2376,2718,3217,0,23220,31629,0,0.865,5.817,12:22:50 PM,51.17134858,2.629021,2,RTK       ,,,,,,,2021-07-09 12:22:50+00:00,,,,,,,,
0,0,0,0,0,0,0,0,0.0706,0.8916,0.0043,0,0,0,0,0,0,0,0,0,0,0,0,0.017,0.1529,0.8262,2.2788,3.4515,4.245,5.9981,9.3527,11.4775,6.9255,1.0743,0.0191,0,27.2887,1.0186,10.9,0.075,0.9945,0.03,-5,2021,7,9,12,22,51,7/9/2021,12:22:51 PM,7/09/2021 12:22:51,6.554,174.84,46.785,47,2370,2720,3223,0,23219,37182,0,0.865,5.784,12:22:51 PM,51.17134308,2.62900883,2,RTK       ,,,,,,,2021-07-09 12:22:51+00:00,,,,,,,,
0,0,0,0,0,0,0,0,0.0786,0.9671,0.0055,0,0,0,0,0,0,0,0,0,0,0,0,0.0155,0.1456,0.805,2.2372,3.3878,4.1614,5.9057,9.2961,11.6116,7.2562,1.1768,0.022,0,27.0055,1.0213,10.89,0.075,0.9933,0.04,-5,2021,7,9,12,22,52,7/9/2021,12:22:52 PM,7/09/2021 12:22:52,6.554,175.02,47.072,47,2371,2726,3225,0,23220,37178,0,0.869,5.629,12:22:52 PM,51.17133797,2.62899567,2.2,RTK       ,,,,,,,2021-07-09 12:22:52+00:00,,,,,,,,
0,0,0,0,0,0,0,0,0.0772,1.0018,0.0069,0,0,0,0,0,0,0,0,0,0,0,0,0.015,0.1458,0.8218,2.2948,3.4715,4.2541,5.9996,9.3296,11.3975,6.9441,1.106,0.0206,0,27.4181,1.0206,10.9,0.075,0.9927,0.04,-5,2021,7,9,12,22,53,7/9/2021,12:22:53 PM,7/09/2021 12:22:53,6.554,173.34,46.8865,47,2377,2726,3218,0,23220,37179,0,0.869,5.633,12:22:53 PM,51.17133313,2.62898117,2.2,RTK       ,,,,,,,2021-07-09 12:22:53+00:00,,,,,,,,
0,0,0,0,0,0,0,0.001,0.1435,1.0038,0.0078,0,0,0,0,0,0,0,0,0,0,0,0.0014,0.0232,0.1882,0.9346,2.4321,3.5515,4.2356,5.818,9.0443,11.8927,8.9297,2.1815,0.0859,0,27.385,1.0179,10.89,0.075,0.9933,0.03,-5,2021,7,9,12,22,54,7/9/2021,12:22:54 PM,7/09/2021 12:22:54,6.554,177.66,50.4748,47,2378,2724,3215,0,23218,37058,0,0.866,5.763,12:22:54 PM,51.17132825,2.62896717,2.1,RTK       ,,,,,,,2021-07-09 12:22:54+00:00,,,,,,,,
0,0,0,0,0,0,0,0.0067,0.3145,0.7616,0.0029,0,0,0,0,0,0,0,0,0,0,0,0.0015,0.0253,0.1943,0.9214,2.3338,3.4112,4.1744,5.9141,9.2827,11.8912,8.319,1.7914,0.0573,0,27.3444,1.0193,10.88,0.075,0.9945,0.03,-5,2021,7,9,12,22,55,7/9/2021,12:22:55 PM,7/09/2021 12:22:55,6.554,177.09,49.4032,47,2374,2731,3224,0,23219,36822,0,0.866,5.757,12:22:55 PM,51.17132298,2.62895317,2.4,RTK       ,,,,,,,2021-07-09 12:22:55+00:00,,,,,,,,
0,0,0,0,0,0,0,0.0749,0.611,0.3828,0.0014,0,0,0,0,0,0,0,0,0,0,0,0.0018,0.029,0.2168,0.9941,2.4312,3.4505,4.1308,5.7721,9.0878,12.0388,9.2246,2.389,0.1064,0,27.1842,1.0193,10.89,0.075,0.9951,0.03,-5,2021,7,9,12,22,56,7/9/2021,12:22:56 PM,7/09/2021 12:22:56,6.554,179.36,50.943,47,2372,2737,3227,0,23219,36677,0,0.865,5.78,12:22:56 PM,51.17131773,2.628937,2.5,RTK       ,,,,,,,2021-07-09 12:22:56+00:00,,,,,,,,
0,0,0,0,0,0,0.0024,0.2727,0.7134,0.192,0,0,0,0,0,0,0,0,0,0,0,0,0.0021,0.0307,0.227,1.0373,2.5305,3.5645,4.1682,5.603,8.6671,12.1155,11.083,4.1039,0.3324,0.0055,27.0109,1.0179,10.89,0.075,0.9951,0.03,-5,2021,7,9,12,22,57,7/9/2021,12:22:57 PM,7/09/2021 12:22:57,6.554,183.75,54.651,47,2378,2737,3217,0,23219,36637,0,0.864,5.834,12:22:57 PM,51.17131227,2.6289215,2.3,RTK       ,,,,,,,2021-07-09 12:22:57+00:00,,,,,,,,
0,0,0,0,0,0,0,0.1028,0.6189,0.327,0.0015,0,0,0,0,0,0,0,0,0,0,0,0.0022,0.0319,0.2197,0.9774,2.4037,3.4687,4.1869,5.8243,9.082,12.0073,9.371,2.5204,0.1173,0,27.247,1.0193,10.88,0.075,0.9957,0.02,-5,2021,7,9,12,22,58,7/9/2021,12:22:58 PM,7/09/2021 12:22:58,6.554,180.03,51.2631,47,2377,2734,3216,0,23217,36572,0,0.865,5.804,12:22:58 PM,51.17130645,2.628907,2.4,RTK       ,,,,,,,2021-07-09 12:22:58+00:00,,,,,,,,
0,0,0,0,0,0,0.002,0.2343,0.6825,0.2103,0.0011,0,0,0,0,0,0,0,0,0,0,0,0.0024,0.0336,0.236,1.0542,2.5442,3.5383,4.1086,5.5707,8.7197,12.1735,10.958,3.9293,0.3012,0.0046,26.9379,1.0193,10.89,0.075,0.9945,0.03,-5,2021,7,9,12,22,59,7/9/2021,12:22:59 PM,7/09/2021 12:22:59,6.554,183.87,54.3045,47,2373,2726,3223,0,23218,36438,0,0.866,5.757,12:22:59 PM,51.17129975,2.62889233,2.6,RTK       ,,,,,,,2021-07-09 12:22:59+00:00,,,,,,,,
0,0,0,0,0,0,0,0.0796,0.5638,0.3568,0.002,0,0,0,0,0,0,0,0,0,0,0,0.0026,0.0362,0.2427,1.0388,2.4365,3.3962,4.0805,5.7834,9.198,12.185,9.2854,2.379,0.1019,0,27.2171,1.0172,10.89,0.075,0.9945,0.03,-5,2021,7,9,12,23,0,7/9/2021,12:23:00 PM,7/09/2021 12:23:00,6.554,180.29,51.1685,47,2373,2724,3225,0,23219,36461,0,0.864,5.837,12:23:00 PM,51.17129322,2.62887583,2.7,RTK       ,,,,,,,2021-07-09 12:23:00+00:00,,,,,,,,
0,0,0,0,0,0,0,0.0791,0.5531,0.3543,0.0022,0,0,0,0,0,0,0,0,0,0,0,0.0029,0.0389,0.2507,1.044,2.407,3.3353,4.0385,5.7931,9.2701,12.3395,9.5104,2.4542,0.1058,0,27.1692,1.0165,10.89,0.075,0.9939,0.03,-5,2021,7,9,12,23,1,7/9/2021,12:23:01 PM,7/09/2021 12:23:01,6.554,181.23,51.579,47,2373,2725,3221,0,23218,36568,0,0.864,5.841,12:23:01 PM,51.1712871,2.62885867,2.6,RTK       ,,,,,,,2021-07-09 12:23:01+00:00,,,,,,,,
0,0,0,0,0,0,0,0.1508,0.6194,0.2719,0.0019,0,0,0,0,0,0,0,0,0,0,0,0.0031,0.0392,0.2491,1.0432,2.451,3.4281,4.0968,5.7305,8.999,12.0761,10.0293,3.1554,0.1938,0.0021,27.084,1.0234,10.89,0.075,0.9927,0.03,-5,2021,7,9,12,23,2,7/9/2021,12:23:02 PM,7/09/2021 12:23:02,6.554,182.26,52.5407,47,2376,2720,3214,0,23218,36557,0,0.871,5.526,12:23:02 PM,51.17128105,2.628843,2.5,RTK       ,,,,,,,2021-07-09 12:23:02+00:00,,,,,,,,
0,0,0,0,0,0,0.0037,0.2658,0.6451,0.1935,0.0015,0,0,0,0,0,0,0,0,0,0,0,0.0036,0.0414,0.2595,1.0752,2.5126,3.5204,4.1753,5.6865,8.7747,12.1842,11.3354,4.3992,0.3852,0.0072,27.1588,1.0165,10.89,0.075,0.9939,0.03,-5,2021,7,9,12,23,3,7/9/2021,12:23:03 PM,7/09/2021 12:23:03,6.554,185.5,55.47,47,2376,2717,3215,0,23219,36421,0,0.864,5.841,12:23:03 PM,51.17127497,2.62882633,2.8,RTK       ,,,,,,,2021-07-09 12:23:03+00:00,,,,,,,,
0,0,0,0,0,0,0.0016,0.1783,0.6099,0.249,0.0022,0,0,0,0,0,0,0,0,0,0,0,0.0047,0.049,0.2795,1.0995,2.5112,3.4735,4.0896,5.621,8.7957,12.1415,10.782,3.7597,0.2712,0.0037,26.9647,1.0193,10.87,0.075,0.9939,0.04,-5,2021,7,9,12,23,4,7/9/2021,12:23:04 PM,7/09/2021 12:23:04,6.554,184.22,53.9228,47,2371,2723,3226,0,23220,36232,0,0.866,5.733,12:23:04 PM,51.17126855,2.62880783,2.8,RTK       ,,,,,,,2021-07-09 12:23:04+00:00,,,,,,,,
0,0,0,0,0,0,0,0.0487,0.4423,0.4069,0.0043,0,0,0,0,0,0,0,0,0,0,0,0.0039,0.0449,0.2647,1.0545,2.4129,3.3661,4.0994,5.8895,9.2953,11.9854,8.8846,2.2377,0.0947,0,27.3334,1.0213,10.89,0.075,0.9951,0.03,-5,2021,7,9,12,23,5,7/9/2021,12:23:05 PM,7/09/2021 12:23:05,6.554,180.46,50.5359,47,2372,2728,3225,0,23219,36356,0,0.867,5.7,12:23:05 PM,51.17126197,2.6287905,2.7,RTK       ,,,,,,,2021-07-09 12:23:05+00:00,,,,,,,,
0,0,0,0,0,0,0,0.0431,0.4155,0.4204,0.0052,0,0,0,0,0,0,0,0,0,0,0,0.0054,0.0543,0.2894,1.085,2.4041,3.3056,4.0111,5.79,9.3152,12.2755,9.1909,2.2684,0.0926,0,27.1443,1.0199,10.89,0.075,0.9945,0.03,-5,2021,7,9,12,23,6,7/9/2021,12:23:06 PM,7/09/2021 12:23:06,6.554,181.47,50.9716,47,2378,2725,3215,0,23218,36615,0,0.867,5.73,12:23:06 PM,51.17125502,2.62877383,2.8,RTK       ,,,,,,,2021-07-09 12:23:06+00:00,,,,,,,,
0,0,0,0,0,0,0.0059,0.2815,0.601,0.1836,0.0021,0,0,0,0,0,0,0,0,0,0,0,0.0062,0.0573,0.3038,1.1401,2.5458,3.488,4.0928,5.5897,8.6929,12.1183,11.3481,4.5441,0.4297,0.0091,26.9907,1.0213,10.89,0.075,0.9933,0.04,-5,2021,7,9,12,23,7,7/9/2021,12:23:07 PM,7/09/2021 12:23:07,6.554,185.97,55.4398,47,2375,2722,3215,0,23220,36665,0,0.869,5.629,12:23:07 PM,51.17124798,2.62875567,3,RTK       ,,,,,,,2021-07-09 12:23:07+00:00,,,,,,,,
0,0,0,0,0,0,0.0026,0.1849,0.5737,0.2475,0.0034,0,0,0,0,0,0,0,0,0,0,0,0.0059,0.0569,0.3014,1.1242,2.4891,3.4014,4.0411,5.6606,8.9538,12.2859,10.7189,3.7081,0.2753,0.004,27.0465,1.022,10.89,0.075,0.9945,0.04,-5,2021,7,9,12,23,8,7/9/2021,12:23:08 PM,7/09/2021 12:23:08,6.554,184.55,54.0386,47,2370,2721,3224,0,23220,36561,0,0.868,5.65,12:23:08 PM,51.17124087,2.628737,2.9,RTK       ,,,,,,,2021-07-09 12:23:08+00:00,,,,,,,,
0,0,0,0,0,0,0.0021,0.1615,0.5554,0.2672,0.0041,0,0,0,0,0,0,0,0,0,0,0.0011,0.0072,0.0642,0.3184,1.1454,2.5201,3.4485,4.06,5.5913,8.7982,12.1709,10.7101,3.6513,0.2565,0.0034,26.9447,1.0206,10.89,0.075,0.9945,0.03,-5,2021,7,9,12,23,9,7/9/2021,12:23:09 PM,7/09/2021 12:23:09,6.554,184.28,53.7367,47,2372,2719,3224,0,23218,36353,0,0.867,5.703,12:23:09 PM,51.17123387,2.62871917,2.9,RTK       ,,,,,,,2021-07-09 12:23:09+00:00,,,,,,,,
0,0,0,0,0,0,0,0.0359,0.3674,0.4474,0.0089,0,0,0,0,0,0,0,0,0,0,0.0011,0.0076,0.0687,0.3268,1.1291,2.4095,3.2903,4.017,5.841,9.3244,12.1181,9.0311,2.2671,0.096,0,27.2751,1.0199,10.89,0.075,0.9945,0.03,-5,2021,7,9,12,23,10,7/9/2021,12:23:10 PM,7/09/2021 12:23:10,6.554,181.13,50.7874,47,2376,2710,3215,0,23218,36486,0,0.867,5.73,12:23:10 PM,51.17122673,2.62870067,3,RTK       ,,,,,,,2021-07-09 12:23:10+00:00,,,,,,,,
0,0,0,0,0,0,0,0.0529,0.418,0.4166,0.0083,0,0,0,0,0,0,0,0,0,0,0,0.0063,0.0614,0.3127,1.1328,2.4496,3.2927,3.9445,5.7319,9.355,12.3438,9.2827,2.3873,0.1062,0,27.1827,1.0206,10.89,0.075,0.9945,0.03,-5,2021,7,9,12,23,11,7/9/2021,12:23:11 PM,7/09/2021 12:23:11,6.554,181.57,51.3029,47,2372,2712,3215,0,23219,36623,0,0.867,5.703,12:23:11 PM,51.17121927,2.62868117,3.1,RTK       ,,,,,,,2021-07-09 12:23:11+00:00,,,,,,,,
0,0,0,0,0,0,0.0012,0.1206,0.5194,0.3254,0.0066,0,0,0,0,0,0,0,0,0,0,0,0.0068,0.0623,0.3156,1.1423,2.4797,3.3479,3.9958,5.7213,9.2193,12.4786,10.3823,3.2837,0.2075,0.0024,27.2642,1.0172,10.89,0.075,0.9927,0.03,-5,2021,7,9,12,23,12,7/9/2021,12:23:12 PM,7/09/2021 12:23:12,6.554,183.89,53.6186,47,2370,2718,3222,0,23219,36638,0,0.866,5.767,12:23:12 PM,51.17121207,2.628662,2.9,RTK       ,,,,,,,2021-07-09 12:23:12+00:00,,,,,,,,
0,0,0,0,0,0,0.0011,0.1133,0.5066,0.3316,0.007,0,0,0,0,0,0,0,0,0,0,0.0012,0.0079,0.0687,0.3304,1.1625,2.4945,3.347,3.9721,5.6645,9.1348,12.4065,10.2614,3.1766,0.1934,0.0021,27.1432,1.0186,10.89,0.075,0.9933,0.02,-5,2021,7,9,12,23,13,7/9/2021,12:23:13 PM,7/09/2021 12:23:13,6.554,183.47,53.1832,47,2372,2718,3224,0,23217,36566,0,0.866,5.737,12:23:13 PM,51.17120515,2.62864283,3,RTK       ,,,,,,,2021-07-09 12:23:13+00:00,,,,,,,,
0,0,0,0,0,0,0,0.0659,0.4331,0.3998,0.0098,0,0,0,0,0,0,0,0,0,0,0.0011,0.0074,0.064,0.3065,1.0974,2.4165,3.327,4.0417,5.8464,9.3892,12.3299,9.4841,2.555,0.1236,0,27.4058,1.0186,10.89,0.075,0.9945,0.02,-5,2021,7,9,12,23,14,7/9/2021,12:23:14 PM,7/09/2021 12:23:14,6.554,182.03,51.8986,47,2375,2723,3219,0,23217,36634,0,0.865,5.784,12:23:14 PM,51.17119783,2.62862283,3.1,RTK       ,,,,,,,2021-07-09 12:23:14+00:00,,,,,,,,
0,0,0,0,0,0,0.003,0.1743,0.5415,0.2746,0.0065,0,0,0,0,0,0,0,0,0,0,0.0013,0.0082,0.0682,0.3281,1.1634,2.5197,3.3818,3.9744,5.6022,9.0411,12.5651,11.0837,3.9179,0.3029,0.0047,27.0883,1.0158,10.89,0.075,0.9933,0.03,-5,2021,7,9,12,23,15,7/9/2021,12:23:15 PM,7/09/2021 12:23:15,6.554,185.68,54.9624,47,2376,2725,3214,0,23218,36639,0,0.864,5.844,12:23:15 PM,51.17119008,2.62860317,3.1,RTK       ,,,,,,,2021-07-09 12:23:15+00:00,,,,,,,,
0,0,0,0,0,0,0,0.078,0.4456,0.3862,0.0111,0,0,0,0,0,0,0,0,0,0,0.0012,0.0082,0.0702,0.3275,1.138,2.4631,3.3447,3.9905,5.7254,9.3056,12.3873,9.5274,2.5663,0.1261,0.001,27.2953,1.022,10.89,0.075,0.9945,0.03,-5,2021,7,9,12,23,16,7/9/2021,12:23:16 PM,7/09/2021 12:23:16,6.554,181.75,51.9034,47,2372,2723,3218,0,23218,36602,0,0.868,5.65,12:23:16 PM,51.17118227,2.62858333,3.2,RTK       ,,,,,,,2021-07-09 12:23:16+00:00,,,,,,,,
0,0,0,0,0,0,0,0.0618,0.4172,0.4156,0.0125,0,0,0,0,0,0,0,0,0,0,0.0012,0.0077,0.0665,0.3172,1.1317,2.4745,3.3478,3.9844,5.7195,9.2737,12.2685,9.3875,2.5086,0.1193,0,27.2313,1.0234,10.89,0.075,0.9939,0.01,-5,2021,7,9,12,23,17,7/9/2021,12:23:17 PM,7/09/2021 12:23:17,6.554,181.55,51.5152,47,2371,2719,3226,0,23216,36687,0,0.87,5.573,12:23:17 PM,51.17117438,2.628563,3.2,RTK       ,,,,,,,2021-07-09 12:23:17+00:00,,,,,,,,
0,0,0,0,0,0,0.0033,0.1589,0.5168,0.2838,0.0078,0,0,0,0,0,0,0,0,0,0,0.0015,0.0093,0.075,0.3465,1.199,2.5448,3.3624,3.9364,5.5836,9.0347,12.3294,10.5082,3.4955,0.2428,0.0032,27.0638,1.022,10.89,0.075,0.9933,0.03,-5,2021,7,9,12,23,18,7/9/2021,12:23:18 PM,7/09/2021 12:23:18,6.554,184.02,53.6428,47,2371,2718,3221,0,23218,36613,0,0.869,5.603,12:23:18 PM,51.1711669,2.62854233,3.3,RTK       ,,,,,,,2021-07-09 12:23:18+00:00,,,,,,,,
0,0,0,0,0,0,0,0.0748,0.424,0.3746,0.0121,0,0,0,0,0,0,0,0,0,0,0.0014,0.0088,0.072,0.3328,1.1668,2.5097,3.3388,3.9389,5.6836,9.3246,12.3738,9.4782,2.5359,0.123,0,27.2629,1.0227,10.89,0.075,0.9945,0.03,-5,2021,7,9,12,23,19,7/9/2021,12:23:19 PM,7/09/2021 12:23:19,6.554,181.91,51.7735,47,2374,2714,3214,0,23218,36653,0,0.869,5.623,12:23:19 PM,51.17115898,2.62852183,3.2,RTK       ,,,,,,,2021-07-09 12:23:19+00:00,,,,,,,,
0,0,0,0,0,0,0,0.0586,0.4141,0.4258,0.0129,0,0,0,0,0,0,0,0,0,0,0.0015,0.009,0.0722,0.3324,1.1771,2.5609,3.3977,3.9429,5.6096,9.2296,12.3647,9.5217,2.5346,0.1198,0,27.2443,1.0172,10.89,0.075,0.9939,0.01,-5,2021,7,9,12,23,20,7/9/2021,12:23:20 PM,7/09/2021 12:23:20,6.554,181.44,51.7852,47,2373,2716,3217,0,23216,36738,0,0.865,5.814,12:23:20 PM,51.17115085,2.6285015,3.4,RTK       ,,,,,,,2021-07-09 12:23:20+00:00,,,,,,,,
0,0,0,0,0,0,0.0039,0.1657,0.4983,0.2656,0.0083,0,0,0,0,0,0,0,0,0,0,0.0019,0.0109,0.0808,0.3633,1.2616,2.686,3.4873,3.9512,5.4628,8.8567,12.3347,10.8559,3.7603,0.2742,0.0038,27.1043,1.0186,10.88,0.075,0.9927,0.02,-5,2021,7,9,12,23,21,7/9/2021,12:23:21 PM,7/09/2021 12:23:21,6.554,184.67,54.3331,47,2372,2715,3221,0,23217,36664,0,0.867,5.713,12:23:21 PM,51.17114318,2.62847983,3.4,RTK       ,,,,,,,2021-07-09 12:23:21+00:00,,,,,,,,
0,0,0,0,0,0,0,0.0553,0.372,0.3899,0.0143,0,0,0,0,0,0,0,0,0,0,0.0026,0.0135,0.0943,0.3872,1.2687,2.6296,3.3851,3.8769,5.5504,9.2316,12.3574,9.4457,2.4781,0.1156,0,27.2714,1.0193,10.89,0.075,0.9939,0.03,-5,2021,7,9,12,23,22,7/9/2021,12:23:22 PM,7/09/2021 12:23:22,6.554,181.62,51.6681,47,2373,2714,3217,0,23218,36622,0,0.866,5.733,12:23:22 PM,51.1711351,2.62845883,3.4,RTK       ,,,,,,,2021-07-09 12:23:22+00:00,,,,,,,,
0,0,0,0,0,0,0.0023,0.1192,0.4599,0.3017,0.0097,0,0,0,0,0,0,0,0,0,0,0.002,0.011,0.0814,0.3558,1.2364,2.6799,3.5174,3.9859,5.5562,9.0862,12.3269,9.9799,2.9369,0.1651,0.0016,27.405,1.0172,10.89,0.075,0.9951,0.02,-5,2021,7,9,12,23,23,7/9/2021,12:23:23 PM,7/09/2021 12:23:23,6.554,182.33,52.8155,47,2371,2726,3222,0,23217,36595,0,0.864,5.861,12:23:23 PM,51.17112675,2.62843717,3.5,RTK       ,,,,,,,2021-07-09 12:23:23+00:00,,,,,,,,
0,0,0,0,0,0,0.0012,0.0924,0.4305,0.3223,0.0101,0,0,0,0,0,0,0,0,0,0,0.0024,0.0125,0.0879,0.3705,1.2644,2.7069,3.5131,3.9514,5.4685,8.9097,12.1477,9.9477,2.8939,0.1533,0.0013,27.1438,1.0193,10.88,0.075,0.9945,0.03,-5,2021,7,9,12,23,24,7/9/2021,12:23:24 PM,7/09/2021 12:23:24,6.554,182.32,52.2877,47,2372,2729,3224,0,23219,36662,0,0.866,5.757,12:23:24 PM,51.171119,2.62841567,3.3,RTK       ,,,,,,,2021-07-09 12:23:24+00:00,,,,,,,,
0,0,0,0,0,0,0.0115,0.3378,0.533,0.1594,0.0038,0,0,0,0,0,0,0,0,0,0,0.0025,0.0127,0.0852,0.3793,1.3218,2.847,3.6967,4.073,5.3665,8.3861,11.8782,11.9987,5.7456,0.7439,0.0248,27.2163,1.0199,10.89,0.075,0.9951,0.01,-5,2021,7,9,12,23,25,7/9/2021,12:23:25 PM,7/09/2021 12:23:25,6.554,188.09,57.6078,47,2377,2721,3212,0,23216,36669,0,0.866,5.754,12:23:25 PM,51.17111095,2.62839433,3.5,RTK       ,,,,,,,2021-07-09 12:23:25+00:00,,,,,,,,
0,0,0,0,0,0,0.0099,0.2247,0.485,0.1927,0.0054,0,0,0,0,0,0,0,0,0,0,0.0025,0.0133,0.0909,0.3872,1.319,2.8083,3.6301,4.0451,5.4938,8.758,12.0981,10.8635,3.9555,0.3153,0.0051,27.4659,1.0179,10.89,0.075,0.9933,0.01,-5,2021,7,9,12,23,26,7/9/2021,12:23:26 PM,7/09/2021 12:23:26,6.554,184.32,54.7035,46,2373,2719,3219,0,23216,36618,0,0.866,5.763,12:23:26 PM,51.17110198,2.628372,3.6,RTK       ,,,,,,,2021-07-09 12:23:26+00:00,,,,,,,,
0,0,0,0,0,0,0.0086,0.2056,0.4814,0.2055,0.006,0,0,0,0,0,0,0,0,0,0,0.003,0.0154,0.1019,0.4119,1.3346,2.7447,3.5176,3.9776,5.5163,8.8908,12.1332,10.6031,3.6926,0.2746,0.004,27.4209,1.0186,10.89,0.075,0.9951,0.02,-5,2021,7,9,12,23,27,7/9/2021,12:23:27 PM,7/09/2021 12:23:27,6.554,183.76,54.1284,47,2369,2717,3225,0,23217,36525,0,0.865,5.807,12:23:27 PM,51.17109323,2.62835067,3.4,RTK       ,,,,,,,2021-07-09 12:23:27+00:00,,,,,,,,
0,0,0,0,0,0,0.0041,0.1405,0.4499,0.2484,0.0076,0,0,0,0,0,0,0,0,0,0,0.003,0.0149,0.0985,0.3938,1.3016,2.752,3.5607,4.0109,5.5792,9.0556,12.0077,9.5453,2.7766,0.1541,0.0015,27.6207,1.0213,10.89,0.075,0.9951,0.01,-5,2021,7,9,12,23,28,7/9/2021,12:23:28 PM,7/09/2021 12:23:28,6.554,180.96,52.1059,47,2373,2711,3218,0,23216,36582,0,0.867,5.7,12:23:28 PM,51.17108507,2.62832933,3.5,RTK       ,,,,,,,2021-07-09 12:23:28+00:00,,,,,,,,
0,0,0,0,0,0,0.0241,0.3166,0.4697,0.1411,0.0042,0,0,0,0,0,0,0,0,0,0.0011,0.004,0.0193,0.1181,0.4564,1.4266,2.88,3.642,4.0144,5.3766,8.5237,11.9348,11.4698,4.8621,0.5061,0.0122,27.4179,1.0186,10.88,0.075,0.9951,0.02,-5,2021,7,9,12,23,29,7/9/2021,12:23:29 PM,7/09/2021 12:23:29,6.554,185.8,56.2031,47,2371,2718,3219,0,23217,36565,0,0.865,5.807,12:23:29 PM,51.17107657,2.6283065,3.7,RTK       ,,,,,,,2021-07-09 12:23:29+00:00,,,,,,,,
0,0,0,0,0,0,0.0109,0.2118,0.455,0.1855,0.0059,0,0,0,0,0,0,0,0,0,0.0013,0.0043,0.0206,0.1257,0.4683,1.4277,2.8448,3.5733,3.9458,5.3501,8.5767,11.8568,10.663,3.8541,0.2988,0.0045,27.2077,1.022,10.89,0.075,0.9933,0.03,-5,2021,7,9,12,23,30,7/9/2021,12:23:30 PM,7/09/2021 12:23:30,6.554,183.63,53.8846,47,2375,2719,3216,0,23218,36498,0,0.869,5.603,12:23:30 PM,51.17106808,2.62828333,3.5,RTK       ,,,,,,,2021-07-09 12:23:30+00:00,,,,,,,,
0,0,0,0,0,0,0.0162,0.2498,0.4542,0.1617,0.0051,0,0,0,0,0,0,0,0,0,0.0011,0.0037,0.0184,0.1179,0.4662,1.4656,2.9051,3.5884,3.9532,5.4085,8.6844,11.9492,10.8125,4.0558,0.344,0.0061,27.4995,1.0186,10.89,0.075,0.9939,0.03,-5,2021,7,9,12,23,31,7/9/2021,12:23:31 PM,7/09/2021 12:23:31,6.554,183.94,54.6671,47,2374,2719,3217,0,23218,36351,0,0.866,5.76,12:23:31 PM,51.17106035,2.62826067,3.4,RTK       ,,,,,,,2021-07-09 12:23:31+00:00,,,,,,,,
0,0,0,0,0,0,0.0168,0.2497,0.4486,0.1585,0.005,0,0,0,0,0,0,0,0,0,0.0012,0.0039,0.0189,0.1181,0.4628,1.47,2.9566,3.6572,3.9786,5.3561,8.5253,11.7581,10.7379,4.0608,0.3454,0.006,27.4273,1.0206,10.88,0.075,0.9951,0.03,-5,2021,7,9,12,23,32,7/9/2021,12:23:32 PM,7/09/2021 12:23:32,6.554,183.56,54.3352,47,2370,2723,3222,0,23218,36250,0,0.867,5.727,12:23:32 PM,51.1710521,2.62823833,3.6,RTK       ,,,,,,,2021-07-09 12:23:32+00:00,,,,,,,,
0,0,0,0,0,0,0.0071,0.1609,0.4268,0.2101,0.0074,0,0,0,0,0,0,0,0,0,0.0014,0.0043,0.0209,0.1299,0.4866,1.4911,2.9169,3.5448,3.8746,5.3401,8.6749,11.7214,9.8364,3.11,0.1913,0.002,27.2978,1.022,10.89,0.075,0.9933,0.03,-5,2021,7,9,12,23,33,7/9/2021,12:23:33 PM,7/09/2021 12:23:33,6.554,181.16,52.159,47,2374,2725,3222,0,23218,36408,0,0.869,5.603,12:23:33 PM,51.17104355,2.62821517,3.7,RTK       ,,,,,,,2021-07-09 12:23:33+00:00,,,,,,,,
0,0,0,0,0,0,0.0118,0.2008,0.4417,0.1859,0.0063,0,0,0,0,0,0,0,0,0,0.0013,0.0042,0.0206,0.129,0.4937,1.5286,2.9861,3.6149,3.9353,5.3755,8.6195,11.6666,10.0806,3.4116,0.235,0.0029,27.5552,1.0179,10.88,0.075,0.9945,0.03,-5,2021,7,9,12,23,34,7/9/2021,12:23:34 PM,7/09/2021 12:23:34,6.554,181.27,52.952,47,2377,2719,3214,0,23219,36469,0,0.865,5.811,12:23:34 PM,51.1710348,2.628192,3.6,RTK       ,,,,,,,2021-07-09 12:23:34+00:00,,,,,,,,
0,0,0,0,0,0,0.021,0.2647,0.4402,0.1472,0.0048,0,0,0,0,0,0,0,0,0,0.0015,0.005,0.0237,0.1417,0.5235,1.5488,2.9281,3.5126,3.8406,5.2838,8.5598,11.8291,10.7194,4.0457,0.3404,0.0058,27.247,1.0193,10.87,0.075,0.9933,0.03,-5,2021,7,9,12,23,35,7/9/2021,12:23:35 PM,7/09/2021 12:23:35,6.554,183.45,54.1874,47,2369,2721,3221,0,23218,36388,0,0.867,5.71,12:23:35 PM,51.17102602,2.62817,3.6,RTK       ,,,,,,,2021-07-09 12:23:35+00:00,,,,,,,,
0,0,0,0,0,0,0.0243,0.2788,0.4384,0.1385,0.0044,0,0,0,0,0,0,0,0,0,0.0016,0.0052,0.0237,0.1387,0.5082,1.517,2.9263,3.5678,3.9139,5.3269,8.4848,11.5795,10.5085,4.0525,0.3551,0.0063,27.2985,1.0227,10.89,0.075,0.9945,0.04,-5,2021,7,9,12,23,36,7/9/2021,12:23:36 PM,7/09/2021 12:23:36,6.554,182.9,53.8004,47,2371,2722,3222,0,23220,36343,0,0.869,5.623,12:23:36 PM,51.17101722,2.62814683,3.8,RTK       ,,,,,,,2021-07-09 12:23:36+00:00,,,,,,,,
0,0,0,0,0,0,0.009,0.1764,0.4186,0.1869,0.0065,0,0,0,0,0,0,0,0,0,0.0017,0.0051,0.0239,0.1482,0.5484,1.5945,2.9159,3.4058,3.7336,5.2696,8.7131,11.8263,9.8685,3.1548,0.1985,0.0021,27.1572,1.0193,10.87,0.075,0.9927,0.02,-5,2021,7,9,12,23,37,7/9/2021,12:23:37 PM,7/09/2021 12:23:37,6.554,181.37,52.2073,47,2376,2714,3216,0,23217,36411,0,0.867,5.686,12:23:37 PM,51.17100902,2.62812283,3.6,RTK       ,,,,,,,2021-07-09 12:23:37+00:00,,,,,,,,
0,0,0,0,0,0,0.0398,0.3314,0.416,0.1111,0.0037,0,0,0,0,0,0,0,0,0,0.0022,0.0064,0.028,0.1586,0.5748,1.6399,2.9475,3.4053,3.6956,5.1203,8.3653,11.7653,11.1732,4.7144,0.479,0.0105,26.8459,1.0206,10.89,0.075,0.9933,0.03,-5,2021,7,9,12,23,38,7/9/2021,12:23:38 PM,7/09/2021 12:23:38,6.554,185.01,54.9882,47,2371,2714,3215,0,23218,36365,0,0.868,5.656,12:23:38 PM,51.17100122,2.62809967,3.6,RTK       ,,,,,,,2021-07-09 12:23:38+00:00,,,,,,,,
0,0,0,0,0,0,0.0485,0.3572,0.395,0.0926,0.0028,0,0,0,0,0,0,0,0,0,0.0024,0.0071,0.0302,0.1685,0.6033,1.6956,2.9949,3.3911,3.6179,4.9918,8.2209,11.7202,11.3501,5.0002,0.5424,0.0129,26.6198,1.022,10.88,0.075,0.9927,0.02,-5,2021,7,9,12,23,39,7/9/2021,12:23:39 PM,7/09/2021 12:23:39,6.554,185.67,55.2456,47,2369,2724,3225,0,23217,36233,0,0.87,5.579,12:23:39 PM,51.1709927,2.62807583,3.8,RTK       ,,,,,,,2021-07-09 12:23:39+00:00,,,,,,,,
1.7607,0.0437,0.005,0,0,0.0045,0.0504,0.1343,0.0527,0.0143,0.0034,0,0,0,0,0,0.002,0.0051,0.0137,0.0254,0.0469,0.0822,0.1526,0.3639,0.9448,2.1385,3.3434,3.5522,3.4633,4.0794,5.799,8.5817,12.7896,16.5631,13.4477,7.2002,26.0814,1.0158,10.87,0.075,0.9945,0.01,-5,2021,7,9,12,23,40,7/9/2021,12:23:40 PM,7/09/2021 12:23:40,6.554,217.83,84.6637,47,2375,2724,3222,0,23216,34778,0,0.863,5.891,12:23:40 PM,51.17098412,2.62805183,3.7,RTK       ,,,,,,,2021-07-09 12:23:40+00:00,,,,,,,,
1.7294,0.2511,0.0635,0.0138,0.0036,0.0016,0.0013,0,0,0,0,0,0,0,0,0,0,0.0013,0.0059,0.014,0.0334,0.0715,0.1417,0.3517,0.9399,2.1287,3.2656,3.4031,3.3378,4.0754,6.0645,9.2127,13.4354,15.9979,11.0889,4.6883,25.8988,1.022,10.89,0.075,0.9933,0.02,-5,2021,7,9,12,23,41,7/9/2021,12:23:41 PM,7/09/2021 12:23:41,6.554,209.73,80.3217,46,2360,2741,3203,0,23217,29100,0,0.869,5.603,12:23:41 PM,51.17097575,2.62802867,3.7,RTK       ,,,,,,,2021-07-09 12:23:41+00:00,,,,,,,,
0,0,0,0,0,0,0,0,0,0,0,0,0,0,0,0.0106,0.0304,0.1172,0.063,0.0519,0.0416,0.0523,0.0774,0.2253,0.5793,1.6346,2.752,2.5168,2.5274,4.5974,10.7186,13.675,4.5633,0.1382,0,0,25.9958,1.0213,10.88,0.075,0.9945,0.03,-5,2021,7,9,12,23,42,7/9/2021,12:23:42 PM,7/09/2021 12:23:42,6.554,178.87,44.3724,47,2424,2729,3263,0,23218,23320,0,0.868,5.677,12:23:42 PM,51.1709673,2.62800517,3.7,RTK       ,,,,,,,2021-07-09 12:23:42+00:00,,,,,,,,
0,0.0012,0.0073,0.0489,0.2207,0.3769,0.1646,0.0222,0.005,0,0,0,0,0,0,0,0,0.0015,0.0055,0.0116,0.0243,0.0521,0.1191,0.3421,0.9104,2.0657,3.1509,3.241,3.2201,4.1668,6.7003,10.5055,14.2471,13.628,6.188,1.34,24.8582,1.0213,10.87,0.075,0.9945,0.01,-5,2021,7,9,12,23,43,7/9/2021,12:23:43 PM,7/09/2021 12:23:43,6.554,212.68,70.7669,47,2493,2721,3308,0,23216,20082,0,0.868,5.677,12:23:43 PM,51.1709586,2.62798183,3.7,RTK       ,,,,,,,2021-07-09 12:23:43+00:00,,,,,,,,
0,0,0,0,0,0.0079,0.132,0.2314,0.2362,0.0606,0.0017,0,0,0,0,0,0,0.0029,0.0053,0.0083,0.0127,0.0257,0.0775,0.305,0.8023,1.8299,2.8169,2.9533,3.1535,4.659,8.3838,12.4385,11.3161,4.1874,0.34,0.0053,25.7059,1.0213,10.88,0.075,0.9939,0.03,-5,2021,7,9,12,23,44,7/9/2021,12:23:44 PM,7/09/2021 12:23:44,6.554,186.52,53.9929,47,2600,2733,3349,0,23218,14251,0,0.868,5.653,12:23:44 PM,51.17095058,2.62795767,3.8,RTK       ,,,,,,,2021-07-09 12:23:44+00:00,,,,,,,,
1.2424,0.2508,0.086,0.0288,0.0124,0.0088,0.008,0.0033,0,0,0,0,0,0,0,0,0.0022,0.008,0.0252,0.0451,0.0801,0.1346,0.2138,0.432,0.9947,2.0815,3.0794,3.1443,3.0982,3.9127,6.104,9.5412,13.8834,16.3083,11.0864,4.5653,24.9963,1.0213,10.87,0.075,0.9939,0.01,-5,2021,7,9,12,23,45,7/9/2021,12:23:45 PM,7/09/2021 12:23:45,6.554,215.71,80.3811,47,2644,2708,3343,0,23216,12716,0,0.868,5.653,12:23:45 PM,51.17094258,2.62793317,3.7,RTK       ,,,,,,,2021-07-09 12:23:45+00:00,,,,,,,,
0,0,0,0,0,0.0017,0.0741,0.2526,0.2482,0.0526,0.0013,0,0,0,0,0,0.0011,0.0045,0.0085,0.012,0.0168,0.0316,0.0887,0.3267,0.8024,1.7491,2.6887,2.8564,3.0866,4.642,8.6077,12.7956,10.9699,3.583,0.2423,0.003,25.5533,1.0234,10.87,0.075,0.9945,0.02,-5,2021,7,9,12,23,46,7/9/2021,12:23:46 PM,7/09/2021 12:23:46,6.554,186,53.147,47,2631,2660,3356,0,23217,10574,0,0.869,5.596,12:23:46 PM,51.17093448,2.62791067,3.5,RTK       ,,,,,,,2021-07-09 12:23:46+00:00,,,,,,,,
0,0,0,0,0,0.1286,0.2772,0.1069,0.0787,0.0202,0,0,0,0,0,0.0017,0.004,0.0132,0.0208,0.0255,0.0308,0.051,0.1219,0.3882,0.8878,1.8079,2.6606,2.8143,3.0738,4.6072,8.4266,12.8078,12.2254,5.1364,0.5509,0.0138,25.5469,1.022,10.88,0.075,0.9951,0.01,-5,2021,7,9,12,23,47,7/9/2021,12:23:47 PM,7/09/2021 12:23:47,6.554,189.93,56.2812,47,2632,2727,3382,0,23216,13000,0,0.868,5.673,12:23:47 PM,51.17092648,2.6278875,3.8,RTK       ,,,,,,,2021-07-09 12:23:47+00:00,,,,,,,,
0,0,0,0,0,0.0039,0.114,0.2546,0.216,0.0413,0,0,0,0,0,0,0.0024,0.0097,0.016,0.0195,0.0235,0.0396,0.102,0.3549,0.8415,1.7594,2.596,2.7257,3.0335,4.7002,8.7813,13.0896,11.234,3.6658,0.2507,0.0032,25.635,1.0199,10.87,0.075,0.9945,0.01,-5,2021,7,9,12,23,48,7/9/2021,12:23:48 PM,7/09/2021 12:23:48,6.554,186.6,53.8782,47,2628,2725,3385,0,23216,13224,0,0.867,5.73,12:23:48 PM,51.17091838,2.62786267,3.8,RTK       ,,,,,,,2021-07-09 12:23:48+00:00,,,,,,,,
0,0,0,0,0.0123,0.2674,0.305,0.0652,0.0222,0.0032,0,0,0,0,0,0,0.0024,0.0102,0.0237,0.033,0.0456,0.0736,0.1471,0.3982,0.9233,1.9077,2.7736,2.8592,3.0586,4.4182,7.7801,12.2336,13.9475,8.5434,1.7653,0.1203,25.1298,1.0234,10.87,0.075,0.9951,0.01,-5,2021,7,9,12,23,49,7/9/2021,12:23:49 PM,7/09/2021 12:23:49,6.554,198.11,61.7401,47,2632,2709,3348,0,23215,14227,0,0.869,5.62,12:23:49 PM,51.17091037,2.627839,3.5,RTK       ,,,,,,,2021-07-09 12:23:49+00:00,,,,,,,,
0,0,0,0,0.0065,0.2421,0.3059,0.0649,0.0216,0.0026,0,0,0,0,0,0,0.0017,0.0084,0.0211,0.0312,0.0456,0.0765,0.1565,0.4202,0.9255,1.8498,2.6808,2.831,3.0965,4.5323,8.0458,12.557,13.5614,7.2371,1.1796,0.0574,25.3665,1.0206,10.88,0.075,0.9933,0.01,-5,2021,7,9,12,23,50,7/9/2021,12:23:50 PM,7/09/2021 12:23:50,6.554,195.02,59.959,47,2648,2689,3369,0,23216,14177,0,0.868,5.656,12:23:50 PM,51.17090245,2.62781617,3.6,RTK       ,,,,,,,2021-07-09 12:23:50+00:00,,,,,,,,
0,0,0,0,0.0086,0.2968,0.3208,0.0432,0.0086,0,0,0,0,0,0,0,0,0.004,0.0118,0.0187,0.0293,0.0542,0.1235,0.3714,0.8858,1.8615,2.7825,2.9525,3.15,4.4617,7.8428,12.4381,13.743,7.3755,1.1794,0.056,25.2277,1.022,10.87,0.075,0.9939,0.01,-5,2021,7,9,12,23,51,7/9/2021,12:23:51 PM,7/09/2021 12:23:51,6.554,195.23,60.0199,47,2640,2705,3367,0,23216,13828,0,0.869,5.626,12:23:51 PM,51.17089443,2.62779267,3.7,RTK       ,,,,,,,2021-07-09 12:23:51+00:00,,,,,,,,
0,0,0,0,0.007,0.3136,0.3408,0.0362,0.0063,0,0,0,0,0,0,0,0,0.0023,0.0079,0.0136,0.0234,0.0469,0.1155,0.368,0.8841,1.847,2.7602,2.9772,3.2483,4.6254,8.0003,12.4484,13.5493,7.111,1.0935,0.049,25.624,1.0186,10.87,0.075,0.9951,0.01,-5,2021,7,9,12,23,52,7/9/2021,12:23:52 PM,7/09/2021 12:23:52,6.554,194.09,59.8751,47,2650,2701,3354,0,23216,13829,0,0.865,5.807,12:23:52 PM,51.1708867,2.62776883,3.6,RTK       ,,,,,,,2021-07-09 12:23:52+00:00,,,,,,,,
0,0,0,0,0,0,0.0363,0.1157,0.0019,0,0,0,0,0,0,0,0.0026,0.0841,0.1041,0.0628,0.0366,0.0327,0.07,0.2731,0.7152,1.8072,2.8801,2.6756,2.6241,4.2042,9.28,15.1268,10.2476,1.2701,0.0102,0,25.0063,1.0206,10.87,0.075,0.9945,0.01,-5,2021,7,9,12,23,53,7/9/2021,12:23:53 PM,7/09/2021 12:23:53,6.554,187.28,51.6609,47,2587,2708,3305,0,23215,19556,0,0.867,5.703,12:23:53 PM,51.17087913,2.62774483,3.7,RTK       ,,,,,,,2021-07-09 12:23:53+00:00,,,,,,,,
0,0,0,0,0,0,0.1081,0.3761,0.1145,0.004,0,0,0,0,0,0,0,0.0054,0.0122,0.0165,0.0221,0.0367,0.0946,0.3302,0.7855,1.6758,2.6108,2.9482,3.3795,5.0469,8.8143,12.5912,10.479,3.1043,0.1763,0.0018,26.3814,1.0213,10.87,0.075,0.9933,0.02,-5,2021,7,9,12,23,54,7/9/2021,12:23:54 PM,7/09/2021 12:23:54,6.554,184.03,52.7341,47,2556,2697,3341,0,23217,19353,0,0.869,5.629,12:23:54 PM,51.17087117,2.62772117,3.6,RTK       ,,,,,,,2021-07-09 12:23:54+00:00,,,,,,,,
0.6299,0.5089,0.4215,0.315,0.188,0.0745,0.0148,0,0,0,0,0,0,0,0,0,0,0,0.001,0.0033,0.0106,0.0322,0.0898,0.3012,0.8919,2.0493,3.1636,3.4143,3.4849,4.2969,6.3896,9.8287,14.1309,15.2228,8.8713,3.0589,26.2812,1.0206,10.87,0.075,0.9933,0.01,-5,2021,7,9,12,23,55,7/9/2021,12:23:55 PM,7/09/2021 12:23:55,6.554,203.74,77.3938,47,2553,2691,3297,0,23216,11896,0,0.868,5.656,12:23:55 PM,51.17086362,2.62769783,3.6,RTK       ,,,,,,,2021-07-09 12:23:55+00:00,,,,,,,,
0,0,0,0,0.0037,0.2781,0.3666,0.0389,0.0061,0,0,0,0,0,0,0,0,0.0023,0.0076,0.0122,0.0195,0.0381,0.0953,0.3194,0.7996,1.7541,2.7763,3.1634,3.5525,4.9917,8.2155,12.0994,12.4358,5.9733,0.7972,0.0289,26.4409,1.0234,10.87,0.075,0.9951,0.01,-5,2021,7,9,12,23,56,7/9/2021,12:23:56 PM,7/09/2021 12:23:56,6.554,190.22,57.7755,47,2566,2683,3357,0,23216,9313,0,0.869,5.62,12:23:56 PM,51.17085637,2.6276745,3.5,RTK       ,,,,,,,2021-07-09 12:23:56+00:00,,,,,,,,
0,0,0,0,0.0246,0.3991,0.3203,0.0252,0.0027,0,0,0,0,0,0,0,0,0.0015,0.0063,0.0119,0.0223,0.0467,0.1126,0.3502,0.874,1.8649,2.8571,3.1856,3.5012,4.7735,7.7015,11.7742,13.8799,8.8155,1.9114,0.1463,26.0812,1.0179,10.87,0.075,0.9933,0.01,-5,2021,7,9,12,23,57,7/9/2021,12:23:57 PM,7/09/2021 12:23:57,6.554,197.02,62.6086,47,2578,2697,3367,0,23216,8677,0,0.866,5.763,12:23:57 PM,51.170849,2.62765067,3.7,RTK       ,,,,,,,2021-07-09 12:23:57+00:00,,,,,,,,
0,0,0,0,0,0.049,0.403,0.1379,0.0317,0.0014,0,0,0,0,0,0,0,0.0051,0.0125,0.0164,0.0213,0.037,0.0922,0.3184,0.7683,1.6779,2.7099,3.2124,3.7816,5.4672,8.8591,12.0917,10.4285,3.5366,0.262,0.004,27.6023,1.0206,10.87,0.075,0.9939,0.02,-5,2021,7,9,12,23,58,7/9/2021,12:23:58 PM,7/09/2021 12:23:58,6.554,183.08,53.9252,47,2569,2697,3340,0,23217,13203,0,0.868,5.68,12:23:58 PM,51.1708412,2.6276265,3.6,RTK       ,,,,,,,2021-07-09 12:23:58+00:00,,,,,,,,
0.0098,0.0254,0.0526,0.1263,0.2734,0.3799,0.1737,0.0115,0,0,0,0,0,0,0,0,0,0,0.0052,0.0117,0.0262,0.0566,0.1193,0.3246,0.8617,1.9561,3.1405,3.5587,3.7516,4.6059,6.6069,9.8443,13.9114,14.4268,7.6404,2.2268,26.0776,1.0227,10.87,0.075,0.9951,0.01,-5,2021,7,9,12,23,59,7/9/2021,12:23:59 PM,7/09/2021 12:23:59,6.554,213.82,74.1275,47,2577,2698,3329,0,23215,14970,0,0.868,5.647,12:23:59 PM,51.17083398,2.62760283,3.5,RTK       ,,,,,,,2021-07-09 12:23:59+00:00,,,,,,,,
0,0,0,0,0,0.0033,0.1887,0.3143,0.0809,0.0028,0,0,0,0,0,0,0,0.0064,0.0142,0.0174,0.0212,0.0342,0.083,0.2866,0.7107,1.624,2.7559,3.3811,4.0019,5.6634,8.8565,11.6924,9.7125,3.0592,0.1963,0.0023,28.0465,1.0193,10.87,0.075,0.9933,0,-5,2021,7,9,12,24,0,7/9/2021,12:24:00 PM,7/09/2021 12:24:00,6.554,181.18,52.7091,47,2582,2695,3356,0,23214,11804,0,0.867,5.71,12:24:00 PM,51.17082683,2.62758,3.5,RTK       ,,,,,,,2021-07-09 12:24:00+00:00,,,,,,,,
0,0,0,0,0,0.1544,0.4017,0.0652,0.0161,0,0,0,0,0,0,0,0,0.0063,0.014,0.0173,0.0211,0.0355,0.086,0.2997,0.7574,1.7317,2.9008,3.5082,4.0761,5.6072,8.5492,11.4523,10.4603,4.073,0.3771,0.0078,28.2479,1.0206,10.87,0.075,0.9939,0.01,-5,2021,7,9,12,24,1,7/9/2021,12:24:01 PM,7/09/2021 12:24:01,6.554,182.41,54.6184,47,2615,2707,3369,0,23216,8749,0,0.868,5.68,12:24:01 PM,51.17081903,2.62755667,3.6,RTK       ,,,,,,,2021-07-09 12:24:01+00:00,,,,,,,,
0,0,0,0,0.0027,0.26,0.3451,0.0417,0.0088,0,0,0,0,0,0,0,0,0.006,0.0152,0.0199,0.0256,0.042,0.0923,0.2933,0.7416,1.7265,2.9882,3.7082,4.2724,5.6498,8.2943,11.1196,10.8929,5.0847,0.6554,0.0219,28.5336,1.0234,10.88,0.075,0.9939,0.01,-5,2021,7,9,12,24,2,7/9/2021,12:24:02 PM,7/09/2021 12:24:02,6.554,184.22,56.3082,47,2610,2708,3360,0,23216,8723,0,0.87,5.573,12:24:02 PM,51.17081142,2.6275325,3.6,RTK       ,,,,,,,2021-07-09 12:24:02+00:00,,,,,,,,
0,0,0,0,0.0115,0.3382,0.3307,0.0334,0.0053,0,0,0,0,0,0,0,0,0.0044,0.0127,0.0184,0.0262,0.0457,0.0989,0.3033,0.7906,1.8623,3.1745,3.8172,4.2588,5.4446,7.8074,10.6624,11.8704,7.4348,1.5615,0.1043,28.3841,1.022,10.87,0.075,0.9951,0,-5,2021,7,9,12,24,3,7/9/2021,12:24:03 PM,7/09/2021 12:24:03,6.554,189.57,60.0174,47,2630,2723,3361,0,23214,8404,0,0.868,5.673,12:24:03 PM,51.17080428,2.627509,3.5,RTK       ,,,,,,,2021-07-09 12:24:03+00:00,,,,,,,,
0,0,0,0,0.003,0.2602,0.3424,0.0432,0.0097,0,0,0,0,0,0,0,0.0014,0.0081,0.0184,0.0227,0.0276,0.044,0.0945,0.2985,0.7665,1.8092,3.1226,3.8143,4.3309,5.6189,8.1018,10.7616,10.914,5.5873,0.8206,0.0315,28.7379,1.022,10.87,0.075,0.9945,0.01,-5,2021,7,9,12,24,4,7/9/2021,12:24:04 PM,7/09/2021 12:24:04,6.554,184.42,56.8529,46,2653,2724,3386,0,23215,7804,0,0.868,5.65,12:24:04 PM,51.17079748,2.6274855,3.5,RTK       ,,,,,,,2021-07-09 12:24:04+00:00,,,,,,,,
0,0,0,0,0.0056,0.2882,0.3312,0.0409,0.0085,0,0,0,0,0,0,0,0.0016,0.0092,0.0211,0.0252,0.0296,0.0446,0.09,0.2794,0.7584,1.8854,3.3004,3.9337,4.3086,5.4611,7.8361,10.5438,11.2095,6.3985,1.1304,0.0566,28.6588,1.0234,10.87,0.075,0.9951,0.01,-5,2021,7,9,12,24,5,7/9/2021,12:24:05 PM,7/09/2021 12:24:05,6.554,186.01,57.9974,47,2656,2718,3365,0,23215,7825,0,0.869,5.62,12:24:05 PM,51.17079033,2.627462,3.6,RTK       ,,,,,,,2021-07-09 12:24:05+00:00,,,,,,,,
0,0,0,0,0.0084,0.3074,0.3306,0.0399,0.0078,0,0,0,0,0,0,0,0.002,0.0105,0.0229,0.0265,0.0303,0.0452,0.09,0.2767,0.7637,1.9337,3.4302,4.0543,4.3094,5.2977,7.5383,10.3561,11.6144,7.3082,1.491,0.0908,28.5255,1.0193,10.87,0.075,0.9933,0.02,-5,2021,7,9,12,24,6,7/9/2021,12:24:06 PM,7/09/2021 12:24:06,6.554,188,59.3859,47,2641,2717,3361,0,23217,8033,0,0.867,5.71,12:24:06 PM,51.17078303,2.62743783,3.7,RTK       ,,,,,,,2021-07-09 12:24:06+00:00,,,,,,,,
0,0,0,0,0.0038,0.2603,0.3316,0.0461,0.0116,0,0,0,0,0,0,0,0.0034,0.0163,0.0303,0.0318,0.0328,0.0465,0.092,0.2857,0.7751,1.9537,3.4545,4.0386,4.2472,5.2293,7.5543,10.3954,11.2419,6.426,1.086,0.0483,28.4449,1.0186,10.87,0.075,0.9939,0.01,-5,2021,7,9,12,24,7,7/9/2021,12:24:07 PM,7/09/2021 12:24:07,6.554,185.37,57.6425,47,2652,2726,3349,0,23216,7874,0,0.866,5.76,12:24:07 PM,51.1707755,2.62741467,3.4,RTK       ,,,,,,,2021-07-09 12:24:07+00:00,,,,,,,,
0,0,0,0,0,0.1813,0.3397,0.0594,0.0214,0.0023,0,0,0,0,0,0.0022,0.0068,0.0289,0.044,0.0403,0.0362,0.0475,0.0929,0.2939,0.7766,1.9318,3.3674,3.8788,4.0907,5.1713,7.7422,10.7186,10.87,5.2421,0.6481,0.0177,28.1556,1.0199,10.88,0.075,0.9933,0.03,-5,2021,7,9,12,24,8,7/9/2021,12:24:08 PM,7/09/2021 12:24:08,6.554,182.91,55.6521,47,2650,2724,3378,0,23218,7199,0,0.868,5.683,12:24:08 PM,51.17076782,2.62739233,3.5,RTK       ,,,,,,,2021-07-09 12:24:08+00:00,,,,,,,,
0,0,0,0,0.0231,0.353,0.2837,0.0327,0.0066,0,0,0,0,0,0,0,0.0033,0.015,0.0313,0.0351,0.0389,0.0558,0.1022,0.2924,0.8161,2.101,3.6762,4.1025,4.0733,4.8214,6.9268,9.9364,12.1776,9.2173,2.542,0.2343,27.7904,1.0199,10.87,0.075,0.9951,0.01,-5,2021,7,9,12,24,9,7/9/2021,12:24:09 PM,7/09/2021 12:24:09,6.554,192.95,61.898,47,2664,2719,3374,0,23216,6749,0,0.866,5.754,12:24:09 PM,51.17076033,2.62736933,3.6,RTK       ,,,,,,,2021-07-09 12:24:09+00:00,,,,,,,,
0,0,0,0,0.002,0.2186,0.3019,0.052,0.0206,0.0029,0,0,0,0,0,0.0042,0.0118,0.0428,0.0599,0.0525,0.0452,0.0573,0.1062,0.3177,0.8288,2.0286,3.4206,3.7651,3.8505,4.8705,7.4859,10.7363,11.4217,5.9562,0.8205,0.0262,27.5456,1.0193,10.87,0.075,0.9951,0.01,-5,2021,7,9,12,24,10,7/9/2021,12:24:10 PM,7/09/2021 12:24:10,6.554,184.78,56.5064,47,2671,2731,3353,0,23215,6959,0,0.865,5.78,12:24:10 PM,51.17075317,2.62734517,3.6,RTK       ,,,,,,,2021-07-09 12:24:10+00:00,,,,,,,,
0,0,0,0,0.0303,0.367,0.2598,0.0288,0.0061,0,0,0,0,0,0,0.0021,0.0076,0.0305,0.0571,0.0581,0.0583,0.0769,0.1288,0.3398,0.8979,2.1994,3.6385,3.8383,3.7079,4.4436,6.6785,10.0771,12.8558,10.0235,2.8239,0.2688,26.8553,1.0179,10.87,0.075,0.9939,0.01,-5,2021,7,9,12,24,11,7/9/2021,12:24:11 PM,7/09/2021 12:24:11,6.554,195.35,62.9043,47,2685,2742,3332,0,23215,6574,0,0.865,5.787,12:24:11 PM,51.170746,2.6273215,3.5,RTK       ,,,,,,,2021-07-09 12:24:11+00:00,,,,,,,,
0,0,0,0,0.0052,0.2691,0.2818,0.0406,0.0139,0.0019,0,0,0,0,0,0.0051,0.0148,0.0516,0.0736,0.0638,0.0543,0.067,0.1171,0.331,0.8564,2.0909,3.5048,3.7563,3.691,4.5313,6.9889,10.4622,12.1562,7.4081,1.3031,0.0597,26.8104,1.0213,10.86,0.075,0.9945,0.01,-5,2021,7,9,12,24,12,7/9/2021,12:24:12 PM,7/09/2021 12:24:12,6.554,188.41,58.1997,47,2649,2720,3371,0,23215,6462,0,0.868,5.677,12:24:12 PM,51.17073885,2.62729867,3.4,RTK       ,,,,,,,2021-07-09 12:24:12+00:00,,,,,,,,
0,0,0,0,0.0044,0.256,0.2733,0.0417,0.0156,0.0023,0,0,0,0,0.0013,0.0068,0.0188,0.062,0.0832,0.0699,0.0576,0.0701,0.1215,0.3404,0.8728,2.1059,3.4336,3.5778,3.5092,4.4393,7.1211,10.8463,12.399,7.1738,1.1525,0.0468,26.4846,1.0206,10.86,0.075,0.9957,0,-5,2021,7,9,12,24,13,7/9/2021,12:24:13 PM,7/09/2021 12:24:13,6.554,188.66,58.103,47,2660,2732,3382,0,23213,6308,0,0.866,5.75,12:24:13 PM,51.17073142,2.62727583,3.5,RTK       ,,,,,,,2021-07-09 12:24:13+00:00,,,,,,,,
0,0,0,0,0.013,0.3194,0.2485,0.0315,0.0099,0.0014,0,0,0,0,0.0011,0.006,0.0189,0.0654,0.0971,0.0843,0.0719,0.0863,0.141,0.3716,0.932,2.1611,3.3832,3.4244,3.3124,4.1796,6.8166,10.8657,13.4289,8.8464,1.7684,0.1025,25.7766,1.0186,10.87,0.075,0.9945,0.01,-5,2021,7,9,12,24,14,7/9/2021,12:24:14 PM,7/09/2021 12:24:14,6.554,193.46,60.7884,47,2656,2724,3361,0,23215,6449,0,0.865,5.784,12:24:14 PM,51.170724,2.6272525,3.6,RTK       ,,,,,,,2021-07-09 12:24:14+00:00,,,,,,,,
0,0,0,0,0.0165,0.3171,0.2718,0.0367,0.01,0.0012,0,0,0,0,0,0.0054,0.0176,0.0633,0.1033,0.0955,0.0867,0.1055,0.1659,0.4081,0.9822,2.1844,3.2833,3.2531,3.175,4.0969,6.7915,10.9095,13.7608,9.6285,2.1895,0.159,25.471,1.022,10.87,0.075,0.9939,0.01,-5,2021,7,9,12,24,15,7/9/2021,12:24:15 PM,7/09/2021 12:24:15,6.554,195.7,62.1183,47,2662,2727,3355,0,23215,6404,0,0.869,5.626,12:24:15 PM,51.17071663,2.62722883,3.6,RTK       ,,,,,,,2021-07-09 12:24:15+00:00,,,,,,,,
0,0,0,0,0.0125,0.3069,0.2692,0.0369,0.011,0.0015,0,0,0,0,0.0011,0.0063,0.0205,0.074,0.1163,0.1049,0.093,0.1125,0.1783,0.4365,1.0132,2.1663,3.139,3.0503,3.0198,4.0356,6.9316,11.3664,14.1057,9.1569,1.8018,0.1084,25.1372,1.0179,10.86,0.075,0.9933,0.01,-5,2021,7,9,12,24,16,7/9/2021,12:24:16 PM,7/09/2021 12:24:16,6.554,195.12,61.6763,47,2648,2724,3359,0,23215,6454,0,0.866,5.763,12:24:16 PM,51.17070932,2.62720567,3.5,RTK       ,,,,,,,2021-07-09 12:24:16+00:00,,,,,,,,
0,0,0,0,0.0026,0.2326,0.2706,0.045,0.021,0.0038,0,0,0,0,0.0027,0.0139,0.0356,0.1125,0.1381,0.1087,0.0837,0.0962,0.16,0.4208,0.9604,2.0218,2.9037,2.8567,2.9711,4.2433,7.6362,12.2259,13.2436,6.3831,0.7558,0.0217,25.341,1.0193,10.87,0.075,0.9951,0,-5,2021,7,9,12,24,17,7/9/2021,12:24:17 PM,7/09/2021 12:24:17,6.554,189.42,57.9711,47,2667,2731,3351,0,23214,6324,0,0.865,5.78,12:24:17 PM,51.17070192,2.62718317,3.5,RTK       ,,,,,,,2021-07-09 12:24:17+00:00,,,,,,,,
0,0,0,0,0.0016,0.2059,0.2787,0.0498,0.0251,0.0048,0,0,0,0,0.003,0.0159,0.0406,0.1297,0.1577,0.124,0.0954,0.11,0.1839,0.4716,1.0019,1.9591,2.6851,2.6377,2.8418,4.234,7.8285,12.545,13.152,5.8762,0.6154,0.0153,25.0858,1.0193,10.86,0.075,0.9951,0,-5,2021,7,9,12,24,18,7/9/2021,12:24:18 PM,7/09/2021 12:24:18,6.554,188.61,57.2899,47,2670,2731,3351,0,23214,6183,0,0.865,5.78,12:24:18 PM,51.1706946,2.62716,3.6,RTK       ,,,,,,,2021-07-09 12:24:18+00:00,,,,,,,,
0,0,0,0,0.0348,0.3623,0.2381,0.0287,0.0073,0,0,0,0,0,0.0011,0.0067,0.0238,0.0879,0.1523,0.1446,0.1352,0.1628,0.2405,0.5201,1.0796,2.0332,2.7051,2.6295,2.7931,4.012,7.1271,11.7727,14.9548,10.4767,2.4525,0.2074,24.5258,1.0193,10.82,0.075,0.9933,0.01,-5,2021,7,9,12,24,19,7/9/2021,12:24:19 PM,7/09/2021 12:24:19,6.554,199.65,64.3899,47,2666,2732,3376,0,23216,5513,0,0.867,5.71,12:24:19 PM,51.17068708,2.62713633,3.6,RTK       ,,,,,,,2021-07-09 12:24:19+00:00,,,,,,,,
0.0015,0.003,0.0051,0.0098,0.0197,0.0388,0.069,0.1555,0.2746,0.4541,0.5419,0.5153,0.4738,0.4774,0.5082,0.5891,0.651,0.7144,0.7469,0.8604,0.9839,1.1949,1.5938,2.2112,2.7782,3.151,3.2282,3.1527,3.2382,3.8652,5.6765,10.1175,20.2576,37.748,49.7682,42.925,38.1833,1.0643,10.87,0.075,0.9939,0.01,-5,2021,7,9,12,24,20,7/9/2021,12:24:20 PM,7/09/2021 12:24:20,6.554,260.88,198.9997,47,2535,2735,3363,0,23216,2127,0,0.905,4.002,12:24:20 PM,51.17067978,2.6271135,3.4,RTK       ,,,,,,,2021-07-09 12:24:20+00:00,,,,,,,,
0,0,0,0,0,0,0,0.003,0.0302,0.2498,0.7416,0.8113,0.7338,0.7227,0.6589,0.6973,0.6716,0.7093,0.6313,0.7229,0.8238,0.992,1.3788,1.9365,2.12,2.1419,2.0656,1.9919,2.055,2.3915,3.3201,5.5945,10.7743,20.7263,30.1907,20.953,28.6008,1.0766,10.87,0.075,0.9939,0.26,-5,2021,7,9,12,24,21,7/9/2021,12:24:21 PM,7/09/2021 12:24:21,6.554,228.58,116.8397,46,2358,2727,3191,0,23255,656,0,0.915,3.542,12:24:21 PM,51.17067247,2.627091,3.5,RTK       ,,,,,,,2021-07-09 12:24:21+00:00,,,,,,,,
0,0,0,0,0,0,0,0.0073,0.0538,0.3259,0.7465,0.7335,0.6441,0.6405,0.6188,0.6929,0.7085,0.7889,0.7364,0.8443,0.9652,1.16,1.6023,2.2254,2.3968,2.3078,2.0194,1.7134,1.5608,1.6563,2.1566,3.3923,5.9404,9.5726,10.4542,5.46,27.3054,1.0876,10.87,0.075,0.9939,0.45,-5,2021,7,9,12,24,22,7/9/2021,12:24:22 PM,7/09/2021 12:24:22,6.554,150.42,62.1251,47,2281,2910,2921,0,23285,365,0,0.925,3.138,12:24:22 PM,51.17066478,2.62706783,3.5,RTK       ,,,,,,,2021-07-09 12:24:22+00:00,,,,,,,,
0,0,0,0,0,0,0,0.0079,0.0543,0.3157,0.7501,0.7922,0.7308,0.7345,0.6973,0.7498,0.7423,0.8008,0.7403,0.8452,0.9626,1.1682,1.6153,2.2412,2.4412,2.4251,2.2557,2.0593,1.9652,2.0206,2.3193,2.9552,4.09,5.4596,5.5889,2.8119,29.4349,1.0876,10.87,0.075,0.9933,0.91,-5,2021,7,9,12,24,23,7/9/2021,12:24:23 PM,7/09/2021 12:24:23,6.554,116.04,50.3408,47,2253,2755,3140,0,23356,176,0,0.925,3.115,12:24:23 PM,51.170657,2.62704517,3.5,RTK       ,,,,,,,2021-07-09 12:24:23+00:00,,,,,,,,
0,0,0,0,0,0,0,0.0037,0.0329,0.2441,0.672,0.7527,0.7324,0.7799,0.7435,0.7773,0.7201,0.7453,0.6502,0.733,0.8233,1.0067,1.4383,2.1174,2.4528,2.6396,2.6898,2.6924,2.7851,3.048,3.6169,4.6829,6.4997,8.2231,6.9712,2.9416,32.8974,1.0883,10.87,0.075,0.9945,1.99,-5,2021,7,9,12,24,24,7/9/2021,12:24:24 PM,7/09/2021 12:24:24,6.554,136.76,62.2161,47,2483,2807,3405,0,23527,119,0,0.925,3.137,12:24:24 PM,51.17064942,2.62702233,3.5,RTK       ,,,,,,,2021-07-09 12:24:24+00:00,,,,,,,,
0,0,0,0,0,0,0,0.0062,0.0482,0.3105,0.7302,0.7463,0.6907,0.7315,0.7307,0.8073,0.7805,0.8172,0.7052,0.78,0.8608,1.0411,1.4742,2.1172,2.3395,2.3164,2.0727,1.749,1.5116,1.4358,1.5648,1.9296,2.4772,2.8739,2.3702,1.0261,26.3676,1.0978,10.87,0.075,0.9933,1.73,-5,2021,7,9,12,24,25,7/9/2021,12:24:25 PM,7/09/2021 12:24:25,6.554,86.51,37.0442,47,2498,2940,3237,0,23485,278,0,0.934,2.74,12:24:25 PM,51.17064203,2.62699983,3.4,RTK       ,,,,,,,2021-07-09 12:24:25+00:00,,,,,,,,
0,0,0,0,0,0,0,0.0018,0.0243,0.2527,0.7625,0.7776,0.6957,0.7303,0.7162,0.8134,0.7989,0.8633,0.733,0.8097,0.8924,1.0426,1.4422,2.0383,2.1674,2.1171,1.913,1.6595,1.4739,1.4236,1.5795,2.0235,2.807,3.4817,2.8135,0.9496,25.7289,1.0924,10.87,0.075,0.9921,0.85,-5,2021,7,9,12,24,26,7/9/2021,12:24:26 PM,7/09/2021 12:24:26,6.554,90.52,37.8043,47,2416,2938,3158,0,23348,551,0,0.93,2.892,12:24:26 PM,51.17063415,2.62697783,3.6,RTK       ,,,,,,,2021-07-09 12:24:26+00:00,,,,,,,,
0,0,0,0,0,0,0,0.0079,0.0606,0.3784,0.8558,0.8091,0.6788,0.646,0.6035,0.6583,0.6625,0.7339,0.6858,0.8016,0.9353,1.1331,1.5706,2.1434,2.2482,2.154,1.972,1.8569,1.8926,2.0886,2.3948,2.7882,3.1756,3.3003,2.6115,1.2601,27.9717,1.0924,10.87,0.075,0.9939,0.35,-5,2021,7,9,12,24,27,7/9/2021,12:24:27 PM,7/09/2021 12:24:27,6.554,96.19,41.1076,47,2360,2946,3086,0,23269,511,0,0.929,2.963,12:24:27 PM,51.17062613,2.62695483,3.6,RTK       ,,,,,,,2021-07-09 12:24:27+00:00,,,,,,,,
0,0,0,0,0,0,0,0.0096,0.0654,0.3688,0.8007,0.7753,0.6635,0.6369,0.5948,0.6432,0.6454,0.7097,0.6655,0.7709,0.8908,1.0746,1.4761,2.0026,2.1082,2.0184,1.8154,1.6354,1.6044,1.8307,2.4843,3.8496,6.0668,8.1129,6.8764,2.7174,26.2906,1.0883,10.87,0.075,0.9921,0.63,-5,2021,7,9,12,24,28,7/9/2021,12:24:28 PM,7/09/2021 12:24:28,6.554,135.01,53.9135,47,2314,2810,3149,0,23313,365,0,0.927,3.042,12:24:28 PM,51.17061827,2.62693233,3.4,RTK       ,,,,,,,2021-07-09 12:24:28+00:00,,,,,,,,
0,0,0,0,0,0,0.0011,0.0108,0.0701,0.3797,0.8053,0.7772,0.6577,0.6203,0.5721,0.6153,0.6184,0.6817,0.6454,0.7577,0.888,1.1252,1.6688,2.4694,2.7438,2.5913,2.1407,1.6674,1.3461,1.2327,1.344,1.7433,2.4224,3.0466,2.6727,1.3418,26.4302,1.0999,10.87,0.075,0.9939,1.08,-5,2021,7,9,12,24,29,7/9/2021,12:24:29 PM,7/09/2021 12:24:29,6.554,88.99,37.6569,47,2302,2760,3127,0,23384,313,0,0.935,2.689,12:24:29 PM,51.17061063,2.62691017,3.4,RTK       ,,,,,,,2021-07-09 12:24:29+00:00,,,,,,,,
0,0,0,0,0,0,0,0.0035,0.0359,0.2935,0.7891,0.7918,0.693,0.692,0.6498,0.6997,0.6724,0.7189,0.6361,0.7316,0.8399,1.0221,1.4611,2.1071,2.3071,2.2838,2.0796,1.827,1.6517,1.6209,1.7597,2.0654,2.4378,2.5948,2.0036,0.817,26.3673,1.0992,10.85,0.075,0.9945,1.57,-5,2021,7,9,12,24,30,7/9/2021,12:24:30 PM,7/09/2021 12:24:30,6.554,86.32,36.2859,47,2320,2751,3163,0,23461,275,0,0.934,2.737,12:24:30 PM,51.17060323,2.626888,3.4,RTK       ,,,,,,,2021-07-09 12:24:30+00:00,,,,,,,,
0,0,0,0,0,0,0,0.0077,0.0586,0.3664,0.8337,0.7983,0.677,0.657,0.6267,0.6946,0.7,0.7608,0.6889,0.7819,0.885,1.0666,1.5039,2.1902,2.5359,2.7255,2.745,2.6553,2.5402,2.4784,2.5401,2.804,3.2766,3.8219,3.6815,1.9474,31.5177,1.0937,10.86,0.075,0.9927,1.93,-5,2021,7,9,12,24,31,7/9/2021,12:24:31 PM,7/09/2021 12:24:31,6.554,104.52,47.0489,47,2307,2677,3164,0,23517,216,0,0.931,2.866,12:24:31 PM,51.17059515,2.62686583,3.5,RTK       ,,,,,,,2021-07-09 12:24:31+00:00,,,,,,,,
0,0,0,0,0,0.0069,0.0159,0.0557,0.2125,0.6818,0.9565,0.7558,0.6431,0.666,0.7169,0.8473,0.9078,1.037,0.9861,1.0883,1.1991,1.4007,1.8634,2.4543,2.5239,2.2856,1.862,1.4817,1.2523,1.2035,1.3012,1.5931,2.0744,2.6564,2.6254,1.6997,28.4053,1.093,10.87,0.075,0.9921,2.26,-5,2021,7,9,12,24,32,7/9/2021,12:24:32 PM,7/09/2021 12:24:32,6.554,77.54,39.0544,47,2325,2676,3164,0,23568,212,0,0.931,2.867,12:24:32 PM,51.17058672,2.6268435,3.5,RTK       ,,,,,,,2021-07-09 12:24:32+00:00,,,,,,,,
0,0,0,0,0,0,0,0.0097,0.0658,0.3696,0.7821,0.7531,0.6668,0.6855,0.6944,0.795,0.8163,0.9027,0.8302,0.9435,1.0698,1.2802,1.7636,2.4229,2.5618,2.4276,2.1251,1.8267,1.6505,1.6465,1.8755,2.4556,3.4794,4.5677,4.2009,1.9144,28.9649,1.0903,10.85,0.075,0.9939,2.3,-5,2021,7,9,12,24,33,7/9/2021,12:24:33 PM,7/09/2021 12:24:33,6.554,101.49,45.5829,47,2282,2748,3110,0,23575,179,0,0.927,3.038,12:24:33 PM,51.17057845,2.62682133,3.4,RTK       ,,,,,,,2021-07-09 12:24:33+00:00,,,,,,,,
0,0,0,0,0,0,0,0.0067,0.0529,0.3441,0.8144,0.8064,0.7176,0.733,0.7154,0.7958,0.7943,0.8654,0.7785,0.8713,0.9727,1.164,1.6326,2.3136,2.5005,2.4079,2.1235,1.8324,1.6727,1.7129,2.0205,2.7115,3.8312,4.9436,4.6065,2.406,28.6491,1.0889,10.86,0.075,0.9939,2.57,-5,2021,7,9,12,24,34,7/9/2021,12:24:34 PM,7/09/2021 12:24:34,6.554,107.31,47.148,47,2294,2724,3132,0,23617,155,0,0.926,3.088,12:24:34 PM,51.17057035,2.6268,3.4,RTK       ,,,,,,,2021-07-09 12:24:34+00:00,,,,,,,,
0,0,0,0,0,0,0.0016,0.0144,0.088,0.4446,0.8894,0.8076,0.6941,0.6853,0.6726,0.7552,0.7793,0.8739,0.8221,0.9405,1.0729,1.3003,1.8262,2.5633,2.7659,2.6641,2.4175,2.2638,2.344,2.7748,3.6847,5.1724,6.7925,7.0511,4.9262,2.2943,34.1461,1.0739,10.87,0.075,0.9939,2.84,-5,2021,7,9,12,24,35,7/9/2021,12:24:35 PM,7/09/2021 12:24:35,6.554,121.95,60.3829,47,2320,2630,3119,0,23660,151,0,0.913,3.644,12:24:35 PM,51.17056212,2.62677833,3.5,RTK       ,,,,,,,2021-07-09 12:24:35+00:00,,,,,,,,
0,0,0,0,0,0,0,0.007,0.0542,0.3436,0.7868,0.7529,0.6513,0.651,0.6382,0.7181,0.7222,0.7828,0.7023,0.7951,0.8976,1.0809,1.5141,2.1502,2.3863,2.4314,2.3205,2.1723,2.0977,2.1793,2.4845,3.1619,4.3322,5.8906,6.343,3.661,29.3203,1.0924,10.87,0.075,0.9933,3.19,-5,2021,7,9,12,24,36,7/9/2021,12:24:36 PM,7/09/2021 12:24:36,6.554,125.16,52.7087,47,2312,2615,3137,0,23714,126,0,0.929,2.939,12:24:36 PM,51.1705545,2.62675583,3.5,RTK       ,,,,,,,2021-07-09 12:24:36+00:00,,,,,,,,
0,0,0,0,0,0.0012,0.0047,0.0316,0.167,0.7,1.1039,0.7926,0.5763,0.514,0.5201,0.681,0.8627,1.1372,1.1469,1.2856,1.4331,1.7384,2.4763,3.5279,3.7555,3.4357,2.8885,2.5146,2.5154,3.2199,5.3407,11.0182,21.6806,28.7565,18.7258,9.1552,42.3708,1.0336,10.87,0.075,0.9927,3.35,-5,2021,7,9,12,24,37,7/9/2021,12:24:37 PM,7/09/2021 12:24:37,6.554,188.04,131.7069,47,2337,2655,3183,0,23739,108,0,0.88,5.127,12:24:37 PM,51.17054698,2.6267335,3.4,RTK       ,,,,,,,2021-07-09 12:24:37+00:00,,,,,,,,
0,0,0,0,0,0,0,0.004,0.0396,0.3145,0.8564,0.8721,0.8152,0.888,0.8985,1.025,1.0123,1.0935,0.9407,1.0462,1.1581,1.4534,2.2405,3.56,4.1449,4.0096,3.2667,2.434,1.7885,1.4602,1.4678,2.2432,5.4178,16.4309,35.5952,36.062,36.7897,1.0589,10.87,0.075,0.9939,3.3,-5,2021,7,9,12,24,38,7/9/2021,12:24:38 PM,7/09/2021 12:24:38,6.554,219.67,132.5391,46,2300,2647,3121,0,23732,109,0,0.9,4.208,12:24:38 PM,51.17053877,2.62671183,3.5,RTK       ,,,,,,,2021-07-09 12:24:38+00:00,,,,,,,,
0,0,0,0,0,0,0.0023,0.0182,0.1129,0.5717,1.1315,0.9415,0.7981,0.8001,0.8089,0.9562,1.0323,1.2084,1.1326,1.2886,1.4591,1.8807,2.9409,4.5509,4.9999,4.3745,3.2257,2.3813,2.0673,2.4733,4.0182,8.5263,17.9938,28.0291,21.9876,12.2271,45.1751,1.0329,10.87,0.075,0.9933,3.43,-5,2021,7,9,12,24,39,7/9/2021,12:24:39 PM,7/09/2021 12:24:39,6.554,181.89,133.9387,47,2295,2654,3115,0,23752,106,0,0.879,5.177,12:24:39 PM,51.17053047,2.62668967,3.6,RTK       ,,,,,,,2021-07-09 12:24:39+00:00,,,,,,,,
0,0,0,0,0,0,0.0012,0.0108,0.0697,0.3766,0.8224,0.8088,0.743,0.775,0.7792,0.8818,0.8969,0.9838,0.8942,1.0111,1.1379,1.4358,2.1469,3.3027,3.9537,4.1667,3.8843,3.423,3.1244,3.2839,4.1407,6.4104,10.6798,14.8032,12.1358,6.4327,43.0545,1.0534,10.86,0.075,0.9916,3.56,-5,2021,7,9,12,24,40,7/9/2021,12:24:40 PM,7/09/2021 12:24:40,6.554,154.22,93.5166,47,2303,2663,3130,0,23773,97,0,0.898,4.32,12:24:40 PM,51.17052225,2.62666833,3.3,RTK       ,,,,,,,2021-07-09 12:24:40+00:00,,,,,,,,
0,0,0,0,0,0,0.0026,0.0194,0.1114,0.5238,0.9715,0.8159,0.6723,0.6536,0.6561,0.7826,0.8662,1.0284,0.9969,1.1555,1.3342,1.6732,2.4376,3.5278,3.8336,3.5787,2.9792,2.3985,2.0643,2.1151,2.7742,4.6644,8.7357,15.0244,18.7611,16.4322,37.9726,1.0486,10.85,0.075,0.9916,3.64,-5,2021,7,9,12,24,41,7/9/2021,12:24:41 PM,7/09/2021 12:24:41,6.554,177.16,101.5907,46,2308,2673,3150,0,23785,90,0,0.894,4.502,12:24:41 PM,51.1705139,2.6266475,3.4,RTK       ,,,,,,,2021-07-09 12:24:41+00:00,,,,,,,,
0,0,0,0,0,0,0,0.0075,0.0579,0.3675,0.8442,0.8189,0.7325,0.7585,0.7493,0.8328,0.8201,0.8863,0.79,0.896,1.0124,1.2599,1.8725,2.8177,3.166,3.0892,2.7265,2.3788,2.2129,2.3388,2.8849,4.2646,7.121,11.4289,13.4235,8.7161,34.3211,1.0732,10.87,0.075,0.9927,3.68,-5,2021,7,9,12,24,42,7/9/2021,12:24:42 PM,7/09/2021 12:24:42,6.554,158.31,79.2753,46,2303,2679,3135,0,23792,92,0,0.913,3.622,12:24:42 PM,51.17050607,2.62662483,3.5,RTK       ,,,,,,,2021-07-09 12:24:42+00:00,,,,,,,,
0,0,0,0,0,0.0058,0.0146,0.0588,0.218,0.6908,1.078,0.9073,0.7924,0.7996,0.8336,0.9738,1.0644,1.2403,1.2274,1.4116,1.6165,2.023,2.8999,3.9995,4.1748,3.6851,2.9642,2.527,2.5237,3.1847,4.8156,8.6719,16.0024,25.3972,27.5031,22.699,45.7304,0.9947,10.86,0.075,0.9927,3.72,-5,2021,7,9,12,24,43,7/9/2021,12:24:43 PM,7/09/2021 12:24:43,6.554,196.49,146.0038,46,2300,2680,3121,0,23798,93,0,0.847,6.663,12:24:43 PM,51.1704983,2.62660283,3.4,RTK       ,,,,,,,2021-07-09 12:24:43+00:00,,,,,,,,
0,0,0,0,0,0,0.002,0.0166,0.0984,0.479,0.9287,0.8093,0.6675,0.6402,0.6292,0.7309,0.7875,0.9184,0.89,1.0581,1.253,1.6619,2.6328,4.1397,4.7537,4.4985,3.6996,2.9809,2.6024,2.695,3.3588,5.0892,8.1439,11.0786,9.4051,4.8251,42.9321,1.035,10.86,0.075,0.9916,3.72,-5,2021,7,9,12,24,44,7/9/2021,12:24:44 PM,7/09/2021 12:24:44,6.554,135.37,81.474,46,2312,2680,3143,0,23798,82,0,0.882,5.027,12:24:44 PM,51.17049028,2.62658133,3.4,RTK       ,,,,,,,2021-07-09 12:24:44+00:00,,,,,,,,
0,0,0,0,0,0,0.0018,0.0148,0.0905,0.458,0.8954,0.8319,0.7107,0.7036,0.6953,0.7789,0.7935,0.8701,0.8064,0.9239,1.0566,1.274,1.7751,2.4638,2.6308,2.476,2.1258,1.8016,1.6236,1.6334,1.8479,2.3545,3.1992,4.0824,3.9476,2.2942,29.2834,1.0828,10.86,0.075,0.9927,3.79,-5,2021,7,9,12,24,45,7/9/2021,12:24:45 PM,7/09/2021 12:24:45,6.554,98,45.1615,46,2310,2690,3151,0,23809,81,0,0.922,3.267,12:24:45 PM,51.17048208,2.62655967,3.4,RTK       ,,,,,,,2021-07-09 12:24:45+00:00,,,,,,,,
0,0,0,0,0,0.0011,0.0041,0.0268,0.1382,0.5884,1.0266,0.8289,0.6465,0.5786,0.5495,0.6492,0.7508,0.9346,0.9512,1.1253,1.3261,1.7116,2.5531,3.7181,4.0022,3.6459,3.0057,2.5174,2.3656,2.6786,3.6923,6.1805,11.1305,16.3194,14.6712,9.3299,40.0164,1.0445,10.87,0.075,0.9927,3.84,-5,2021,7,9,12,24,46,7/9/2021,12:24:46 PM,7/09/2021 12:24:46,6.554,164.47,97.6477,46,2310,2685,3141,0,23817,84,0,0.889,4.706,12:24:46 PM,51.17047385,2.6265385,3.4,RTK       ,,,,,,,2021-07-09 12:24:46+00:00,,,,,,,,
0,0,0,0,0,0,0,0.0029,0.0331,0.3067,0.9618,0.9912,0.9178,0.9487,0.8944,0.9937,0.9876,1.0895,0.9547,1.1114,1.2874,1.7996,3.2251,5.8255,7.0355,6.3365,4.4681,2.9296,2.0718,1.8875,2.3334,4.3421,10.5655,23.4879,25.7986,13.0268,49.3935,1.0493,10.85,0.075,0.9933,3.83,-5,2021,7,9,12,24,47,7/9/2021,12:24:47 PM,7/09/2021 12:24:47,6.554,171.83,126.6142,46,2311,2686,3143,0,23815,83,0,0.893,4.547,12:24:47 PM,51.17046587,2.62651683,3.5,RTK       ,,,,,,,2021-07-09 12:24:47+00:00,,,,,,,,
0,0,0,0,0,0,0,0.0066,0.053,0.3551,0.8727,0.8807,0.7888,0.7974,0.7675,0.8418,0.8348,0.9093,0.8289,0.957,1.1024,1.367,1.9903,2.9023,3.1941,3.0701,2.6603,2.2565,2.0362,2.0851,2.4037,3.0645,3.8867,4.1307,2.8825,1.2776,33.9616,1.0848,10.86,0.075,0.9927,3.84,-5,2021,7,9,12,24,48,7/9/2021,12:24:48 PM,7/09/2021 12:24:48,6.554,94.25,49.2039,46,2312,2686,3151,0,23816,78,0,0.923,3.192,12:24:48 PM,51.1704574,2.62649533,3.4,RTK       ,,,,,,,2021-07-09 12:24:48+00:00,,,,,,,,
0,0,0,0,0,0,0,0.0048,0.0432,0.3197,0.8506,0.8683,0.8083,0.8601,0.8625,0.982,0.9901,1.0918,0.9665,1.0923,1.2292,1.596,2.5682,4.0191,4.1745,3.2836,2.1311,1.3674,1.0191,1.0184,1.4255,2.9303,7.783,20.3016,31.2166,26.7649,33.5723,1.065,10.86,0.075,0.9921,3.89,-5,2021,7,9,12,24,49,7/9/2021,12:24:49 PM,7/09/2021 12:24:49,6.554,210.05,122.5688,46,2321,2687,3168,0,23825,78,0,0.907,3.905,12:24:49 PM,51.17044898,2.6264745,3.4,RTK       ,,,,,,,2021-07-09 12:24:49+00:00,,,,,,,,
0,0,0,0,0,0,0.0017,0.0139,0.0847,0.4276,0.8498,0.7943,0.7126,0.7426,0.7515,0.8359,0.828,0.8928,0.8075,0.9219,1.0491,1.3155,1.9537,2.9484,3.4222,3.4759,3.142,2.7031,2.3628,2.2227,2.2973,2.7788,3.9688,6.2008,7.7917,5.5171,35.5575,1.0787,10.84,0.075,0.9916,3.9,-5,2021,7,9,12,24,50,7/9/2021,12:24:50 PM,7/09/2021 12:24:50,6.554,122.89,61.8147,46,2318,2695,3155,0,23826,84,0,0.919,3.372,12:24:50 PM,51.17044055,2.62645317,3.5,RTK       ,,,,,,,2021-07-09 12:24:50+00:00,,,,,,,,
0,0,0,0,0,0,0,0.0024,0.0283,0.2665,0.8151,0.9056,0.848,0.8869,0.8506,0.9546,0.9513,1.0481,0.9203,1.0774,1.2563,1.7262,2.9692,5.0351,5.7633,5.1153,3.6858,2.4904,1.7897,1.5628,1.7148,2.6684,5.6068,12.8373,17.5651,10.1556,42.664,1.0671,10.86,0.075,0.9927,3.87,-5,2021,7,9,12,24,51,7/9/2021,12:24:51 PM,7/09/2021 12:24:51,6.554,148.91,91.497,46,2312,2708,3152,0,23821,81,0,0.908,3.852,12:24:51 PM,51.17043227,2.62643167,3.4,RTK       ,,,,,,,2021-07-09 12:24:51+00:00,,,,,,,,
0,0,0,0,0,0,0,0.0018,0.0249,0.2704,0.8995,0.9539,0.8954,0.9853,0.9862,1.17,1.2111,1.3809,1.1941,1.3196,1.4503,1.865,3.0969,5.1619,5.5234,4.2794,2.5905,1.4762,0.9168,0.7702,0.9886,2.3089,8.4489,31.7944,57.6695,43.2073,39.4123,1.0473,10.86,0.075,0.991,3.85,-5,2021,7,9,12,24,52,7/9/2021,12:24:52 PM,7/09/2021 12:24:52,6.554,239.06,182.841,46,2314,2696,3152,0,23818,78,0,0.893,4.531,12:24:52 PM,51.17042418,2.62641033,3.4,RTK       ,,,,,,,2021-07-09 12:24:52+00:00,,,,,,,,
0,0,0,0,0,0,0.0031,0.0223,0.1285,0.5947,1.0361,0.7946,0.6049,0.5486,0.5339,0.652,0.7702,0.9855,1.006,1.1806,1.3807,1.7046,2.3919,3.1393,2.9539,2.3927,1.8435,1.5698,1.6776,2.401,4.3241,8.6048,14.6343,16.7679,11.0404,5.9736,34.6401,1.0527,10.86,0.075,0.9921,3.85,-5,2021,7,9,12,24,53,7/9/2021,12:24:53 PM,7/09/2021 12:24:53,6.554,164.42,91.661,46,2306,2690,3150,0,23818,83,0,0.897,4.37,12:24:53 PM,51.17041593,2.626389,3.5,RTK       ,,,,,,,2021-07-09 12:24:53+00:00,,,,,,,,
0,0,0,0,0,0,0,0.0016,0.0224,0.2512,0.8633,0.9697,0.9077,0.9571,0.9226,1.0404,1.0148,1.0963,0.9382,1.1083,1.3031,1.8191,3.2048,5.4243,5.8925,4.7793,3.1107,1.9317,1.3619,1.3747,2.2065,5.6891,16.2998,32.5929,25.5953,11.0756,42.5022,1.0439,10.86,0.075,0.9921,3.9,-5,2021,7,9,12,24,54,7/9/2021,12:24:54 PM,7/09/2021 12:24:54,6.554,186.25,133.7551,46,2314,2697,3154,0,23826,77,0,0.889,4.709,12:24:54 PM,51.17040783,2.62636767,3.3,RTK       ,,,,,,,2021-07-09 12:24:54+00:00,,,,,,,,
0,0,0,0,0,0,0.0034,0.021,0.1054,0.4467,0.8062,0.7509,0.662,0.679,0.699,0.7962,0.8227,0.9029,0.8349,0.9363,1.047,1.2701,1.792,2.5364,2.7823,2.6844,2.3559,2.0258,1.8487,1.9166,2.3027,3.1726,4.6249,6.2303,6.0674,3.5201,31.0285,1.0835,10.86,0.075,0.9921,3.9,-5,2021,7,9,12,24,55,7/9/2021,12:24:55 PM,7/09/2021 12:24:55,6.554,118.27,54.6436,46,2316,2697,3152,0,23826,77,0,0.923,3.219,12:24:55 PM,51.17039955,2.626347,3.3,RTK       ,,,,,,,2021-07-09 12:24:55+00:00,,,,,,,,
0,0,0,0,0,0,0,0.0082,0.0616,0.38,0.8619,0.8256,0.7258,0.7328,0.7146,0.8053,0.8276,0.9314,0.8636,0.9891,1.1297,1.3726,1.9332,2.699,2.8617,2.7383,2.5,2.3842,2.4987,2.9275,3.6237,4.5601,5.1362,4.4009,2.4324,1.0377,35.3961,1.0862,10.84,0.075,0.9921,3.89,-5,2021,7,9,12,24,56,7/9/2021,12:24:56 PM,7/09/2021 12:24:56,6.554,101.97,52.9634,46,2307,2698,3143,0,23824,78,0,0.925,3.118,12:24:56 PM,51.17039095,2.62632567,3.5,RTK       ,,,,,,,2021-07-09 12:24:56+00:00,,,,,,,,
0,0,0,0,0,0,0.0011,0.0108,0.0719,0.394,0.8242,0.7797,0.6895,0.706,0.7025,0.7845,0.7815,0.8514,0.7794,0.8916,1.0179,1.2488,1.7818,2.5465,2.787,2.7002,2.3776,2.0276,1.7886,1.7208,1.8451,2.2407,2.8814,3.4381,2.9512,1.5155,30.11,1.0883,10.86,0.075,0.991,3.92,-5,2021,7,9,12,24,57,7/9/2021,12:24:57 PM,7/09/2021 12:24:57,6.554,91.58,43.1367,46,2313,2704,3155,0,23830,77,0,0.928,2.995,12:24:57 PM,51.1703825,2.626304,3.4,RTK       ,,,,,,,2021-07-09 12:24:57+00:00,,,,,,,,
0,0,0,0,0,0,0,0.0049,0.0415,0.2943,0.7854,0.8706,0.8432,0.8984,0.8689,0.9392,0.9041,0.9627,0.8619,0.9923,1.1392,1.4431,2.1365,3.1108,3.3295,3.0717,2.5684,2.1261,1.9289,2.0395,2.5753,3.8197,6.0449,8.4054,7.4582,3.1866,34.7364,1.0719,10.86,0.075,0.9916,3.93,-5,2021,7,9,12,24,58,7/9/2021,12:24:58 PM,7/09/2021 12:24:58,6.554,122.56,63.6514,46,2315,2697,3155,0,23831,82,0,0.913,3.626,12:24:58 PM,51.17037433,2.62628333,3.3,RTK       ,,,,,,,2021-07-09 12:24:58+00:00,,,,,,,,
0,0,0,0,0,0,0,0.01,0.0704,0.4068,0.8911,0.8316,0.7172,0.7054,0.6769,0.7533,0.7691,0.8618,0.8099,0.9413,1.0913,1.3372,1.879,2.5928,2.7196,2.5538,2.2318,1.9578,1.8679,2.0711,2.6924,4.0198,6.2356,8.8,8.985,5.5604,31.4395,1.0732,10.86,0.075,0.9921,3.93,-5,2021,7,9,12,24,59,7/9/2021,12:24:59 PM,7/09/2021 12:24:59,6.554,139.29,65.0404,46,2312,2701,3153,0,23831,80,0,0.914,3.599,12:24:59 PM,51.17036623,2.62626233,3.5,RTK       ,,,,,,,2021-07-09 12:24:59+00:00,,,,,,,,
0,0,0,0,0,0,0,0.0055,0.0451,0.3101,0.7812,0.819,0.7568,0.7836,0.7567,0.818,0.7944,0.8456,0.7479,0.8327,0.9249,1.0994,1.5277,2.1544,2.3344,2.2519,1.9697,1.6671,1.4816,1.4784,1.7109,2.3237,3.5073,5.1031,5.4033,3.1016,26.897,1.0903,10.85,0.075,0.9916,3.94,-5,2021,7,9,12,25,0,7/9/2021,12:25:00 PM,7/09/2021 12:25:00,6.554,111.03,46.3362,45,2317,2700,3159,0,23832,79,0,0.929,2.944,12:25:00 PM,51.17035818,2.62624017,3.4,RTK       ,,,,,,,2021-07-09 12:25:00+00:00,,,,,,,,
0,0,0,0,0,0.0036,0.0096,0.0406,0.17,0.5931,0.8792,0.7179,0.6049,0.6209,0.6802,0.8341,0.9157,1.0305,0.936,0.9945,1.0531,1.2233,1.6549,2.3062,2.5768,2.6005,2.3894,2.1053,1.9015,1.8851,2.1138,2.7034,3.6756,4.7045,4.5635,2.7183,30.8407,1.078,10.87,0.075,0.9916,3.94,-5,2021,7,9,12,25,1,7/9/2021,12:25:01 PM,7/09/2021 12:25:01,6.554,104,49.2062,45,2311,2694,3150,0,23832,80,0,0.919,3.397,12:25:01 PM,51.17035065,2.62621867,3.3,RTK       ,,,,,,,2021-07-09 12:25:01+00:00,,,,,,,,
0,0,0,0,0,0.0028,0.008,0.0379,0.1657,0.6059,0.9501,0.7752,0.6472,0.6393,0.6613,0.7778,0.8493,0.9853,0.9538,1.0595,1.1742,1.3546,1.7936,2.4337,2.655,2.5863,2.2663,1.9155,1.6825,1.6538,1.8297,2.3233,3.2036,4.2901,4.3143,2.6366,30.4643,1.0869,10.86,0.075,0.9916,3.97,-5,2021,7,9,12,25,2,7/9/2021,12:25:02 PM,7/09/2021 12:25:02,6.554,98.18,47.2321,46,2317,2700,3161,0,23837,78,0,0.926,3.069,12:25:02 PM,51.17034255,2.62619817,3.4,RTK       ,,,,,,,2021-07-09 12:25:02+00:00,,,,,,,,
0,0,0,0,0,0,0.0015,0.0137,0.0844,0.4356,0.9359,0.8829,0.781,0.7742,0.7538,0.8297,0.8437,0.9379,0.8907,1.0581,1.2534,1.6075,2.3816,3.4485,3.7315,3.4156,2.7385,2.0825,1.6402,1.4943,1.7309,2.7913,5.7825,12.3684,17.8358,12.9283,34.7476,1.0432,10.85,0.075,0.9916,3.98,-5,2021,7,9,12,25,3,7/9/2021,12:25:03 PM,7/09/2021 12:25:03,6.554,164.43,86.4542,45,2321,2701,3164,0,23839,78,0,0.889,4.711,12:25:03 PM,51.17033403,2.62617683,3.5,RTK       ,,,,,,,2021-07-09 12:25:03+00:00,,,,,,,,
0,0,0,0,0,0,0,0.0038,0.0392,0.33,0.9222,0.9632,0.8504,0.8352,0.7506,0.7807,0.7349,0.801,0.7315,0.8963,1.0955,1.543,2.7105,4.4129,4.393,2.9911,1.486,0.6621,0.3414,0.2709,0.3932,1.075,4.3244,16.8446,33.9745,31.6161,28.9386,1.0684,10.87,0.075,0.991,3.92,-5,2021,7,9,12,25,4,7/9/2021,12:25:04 PM,7/09/2021 12:25:04,6.554,221.39,116.7731,45,2310,2709,3143,0,23829,81,0,0.911,3.73,12:25:04 PM,51.17032617,2.62615517,3.4,RTK       ,,,,,,,2021-07-09 12:25:04+00:00,,,,,,,,
0,0,0,0,0,0,0.0012,0.0119,0.0789,0.4272,0.8683,0.7866,0.6579,0.6437,0.6242,0.6947,0.6984,0.7651,0.6983,0.8024,0.9184,1.1833,1.8657,3.0878,3.9085,4.277,4.2472,4.1992,4.1794,4.0553,3.6439,3.1661,2.7608,2.4822,2.0233,0.8924,43.3245,1.0746,10.86,0.075,0.9904,3.97,-5,2021,7,9,12,25,5,7/9/2021,12:25:05 PM,7/09/2021 12:25:05,6.554,94.83,54.6492,45,2312,2700,3152,0,23837,77,0,0.917,3.477,12:25:05 PM,51.17031868,2.626134,3.2,RTK       ,,,,,,,2021-07-09 12:25:05+00:00,,,,,,,,
0,0,0,0,0,0,0,0.0087,0.0623,0.3729,0.8491,0.8373,0.7695,0.8135,0.8231,0.945,0.9734,1.096,1.0117,1.1474,1.2963,1.6045,2.3474,3.4208,3.6601,3.2828,2.5838,1.988,1.6456,1.6253,2.0023,3.318,6.8875,14.8133,22.3777,20.6407,35.1668,1.078,10.84,0.075,0.9898,3.94,-5,2021,7,9,12,25,6,7/9/2021,12:25:06 PM,7/09/2021 12:25:06,6.554,187.22,103.204,45,2326,2703,3167,0,23832,78,0,0.92,3.326,12:25:06 PM,51.17031112,2.6261125,3.4,RTK       ,,,,,,,2021-07-09 12:25:06+00:00,,,,,,,,
0,0,0,0,0,0,0,0.0091,0.0648,0.3801,0.8279,0.7965,0.6916,0.6871,0.6718,0.7546,0.7671,0.8426,0.7671,0.8632,0.9691,1.1697,1.6569,2.39,2.6565,2.6147,2.3241,1.9976,1.7804,1.7332,1.8388,2.07,2.2343,2.0234,1.2881,0.5293,29.2545,1.0924,10.86,0.075,0.9916,3.94,-5,2021,7,9,12,25,7,7/9/2021,12:25:07 PM,7/09/2021 12:25:07,6.554,77.9,37.3995,45,2311,2693,3146,0,23833,80,0,0.931,2.868,12:25:07 PM,51.17030367,2.62609067,3.3,RTK       ,,,,,,,2021-07-09 12:25:07+00:00,,,,,,,,
0,0,0,0,0,0,0,0.0081,0.0652,0.4275,1.0563,1.0274,0.936,0.9798,1.0059,1.1976,1.2733,1.4396,1.2882,1.4334,1.5859,2.0247,3.1904,5.1374,6.0302,5.8153,4.8268,3.9394,3.5109,3.9146,5.4373,9.7911,18.4294,27.5052,21.6141,13.0029,57.5512,1.0309,10.86,0.075,0.9916,3.96,-5,2021,7,9,12,25,8,7/9/2021,12:25:08 PM,7/09/2021 12:25:08,6.554,172.65,147.8938,45,2317,2700,3160,0,23835,78,0,0.878,5.186,12:25:08 PM,51.17029627,2.62606917,3.3,RTK       ,,,,,,,2021-07-09 12:25:08+00:00,,,,,,,,
0,0,0,0,0,0,0,0.0096,0.0679,0.3999,0.9138,0.8905,0.7881,0.7949,0.7734,0.8538,0.8509,0.9342,0.8579,1.0317,1.2354,1.7349,3.0016,4.9331,5.4072,4.483,3.1539,2.3606,2.1689,2.651,4.0945,7.8669,15.4329,22.6069,18.5192,11.0158,44.3907,1.0623,10.84,0.075,0.9916,3.96,-5,2021,7,9,12,25,9,7/9/2021,12:25:09 PM,7/09/2021 12:25:09,6.554,175.52,119.8324,45,2316,2690,3146,0,23835,83,0,0.905,3.985,12:25:09 PM,51.1702885,2.62604833,3.3,RTK       ,,,,,,,2021-07-09 12:25:09+00:00,,,,,,,,
0,0,0,0,0,0,0.0015,0.0128,0.0809,0.4137,0.7916,0.7148,0.6171,0.6326,0.6422,0.7338,0.7476,0.8337,0.7733,0.8891,1.0197,1.2592,1.8236,2.6387,2.8816,2.7486,2.361,1.9771,1.7395,1.7125,1.912,2.4233,3.2571,4.0065,3.5062,1.8033,29.9582,1.0889,10.86,0.075,0.9898,3.95,-5,2021,7,9,12,25,10,7/9/2021,12:25:10 PM,7/09/2021 12:25:10,6.554,98.33,44.9546,45,2320,2698,3170,0,23834,74,0,0.93,2.923,12:25:10 PM,51.17028088,2.62602667,3.4,RTK       ,,,,,,,2021-07-09 12:25:10+00:00,,,,,,,,
0,0,0,0,0,0,0,0.0094,0.0677,0.4018,0.9332,0.9002,0.8335,0.8937,0.9265,1.0939,1.1522,1.3002,1.1677,1.2689,1.3706,1.7006,2.6304,4.3763,5.5712,5.875,5.1966,4.3887,3.9982,4.5129,6.1146,9.8559,15.0332,16.1629,8.7251,3.5721,56.684,1.0302,10.86,0.075,0.991,4.02,-5,2021,7,9,12,25,11,7/9/2021,12:25:11 PM,7/09/2021 12:25:11,6.554,140.67,110.033,45,2327,2701,3165,0,23845,77,0,0.878,5.189,12:25:11 PM,51.17027375,2.62600467,3.3,RTK       ,,,,,,,2021-07-09 12:25:11+00:00,,,,,,,,
0,0,0,0,0,0,0,0.008,0.0584,0.3541,0.8262,0.8186,0.7796,0.8627,0.9099,1.0675,1.0861,1.1516,0.9535,0.9697,0.9804,1.1638,1.7408,2.8573,3.5994,3.7707,3.2546,2.5064,1.8812,1.6443,1.8921,3.2318,7.332,16.5419,24.4591,24.1685,35.1369,1.0719,10.86,0.075,0.9898,3.95,-5,2021,7,9,12,25,12,7/9/2021,12:25:12 PM,7/09/2021 12:25:12,6.554,198.86,110.8703,45,2315,2700,3147,0,23834,74,0,0.915,3.555,12:25:12 PM,51.17026667,2.6259835,3.3,RTK       ,,,,,,,2021-07-09 12:25:12+00:00,,,,,,,,
0,0,0,0,0,0,0.0026,0.0176,0.0928,0.4206,0.8504,0.8485,0.7752,0.7816,0.7555,0.8171,0.8183,0.9024,0.8651,1.0208,1.1999,1.5772,2.4366,3.7418,4.2995,4.1138,3.4772,2.9634,2.8355,3.2273,4.2334,6.2266,9.0688,11.0608,8.8983,3.9844,43.0741,1.0493,10.85,0.075,0.9921,3.97,-5,2021,7,9,12,25,13,7/9/2021,12:25:13 PM,7/09/2021 12:25:13,6.554,136.4,82.3131,45,2315,2699,3153,0,23837,78,0,0.894,4.5,12:25:13 PM,51.17025965,2.62596217,3.3,RTK       ,,,,,,,2021-07-09 12:25:13+00:00,,,,,,,,
0,0,0,0,0,0.0057,0.0133,0.0479,0.181,0.5793,0.8161,0.6791,0.5761,0.5792,0.6046,0.6997,0.7466,0.8538,0.8377,0.965,1.1096,1.3289,1.7838,2.3868,2.5626,2.5233,2.3192,2.0754,1.8933,1.8211,1.8798,2.0691,2.3435,2.5264,2.2137,1.1946,29.8689,1.0896,10.85,0.075,0.991,3.96,-5,2021,7,9,12,25,14,7/9/2021,12:25:14 PM,7/09/2021 12:25:14,6.554,84.37,40.2163,45,2318,2695,3159,0,23836,75,0,0.929,2.945,12:25:14 PM,51.17025253,2.6259405,3.4,RTK       ,,,,,,,2021-07-09 12:25:14+00:00,,,,,,,,
0,0,0,0,0,0,0.0023,0.0163,0.0932,0.4525,0.9616,0.9311,0.8902,0.9541,0.9761,1.1123,1.1525,1.2972,1.2056,1.3659,1.5404,1.9922,3.085,4.8408,5.6403,5.4297,4.4527,3.3504,2.464,2.0736,2.2726,3.7798,8.3384,18.3892,24.8296,20.3145,48.5526,1.0063,10.85,0.075,0.9898,4,-5,2021,7,9,12,25,15,7/9/2021,12:25:15 PM,7/09/2021 12:25:15,6.554,173.62,124.2038,45,2324,2691,3168,0,23842,73,0,0.859,6.081,12:25:15 PM,51.1702457,2.62591833,3.3,RTK       ,,,,,,,2021-07-09 12:25:15+00:00,,,,,,,,
0,0,0,0,0,0,0.0021,0.0172,0.1015,0.4983,0.9999,0.9027,0.7857,0.7806,0.7717,0.8856,0.9456,1.1003,1.0661,1.2416,1.4416,1.8256,2.7125,3.9441,4.2047,3.7012,2.8725,2.3019,2.1317,2.4051,3.0671,4.4614,6.8942,9.6445,9.1489,5.5184,40.7069,1.0609,10.85,0.075,0.9916,4.02,-5,2021,7,9,12,25,16,7/9/2021,12:25:16 PM,7/09/2021 12:25:16,6.554,127.81,76.3744,45,2325,2700,3166,0,23845,77,0,0.904,4.036,12:25:16 PM,51.17023853,2.62589733,3.2,RTK       ,,,,,,,2021-07-09 12:25:16+00:00,,,,,,,,
0,0,0,0,0,0.0014,0.0049,0.0287,0.1373,0.548,0.9592,0.8157,0.6882,0.6641,0.6487,0.7214,0.749,0.8601,0.8552,1.0445,1.2712,1.7048,2.6542,4.0644,4.7014,4.6484,4.1057,3.5509,3.2167,3.2458,3.688,4.9661,7.3873,10.5078,10.8527,6.7991,45.5779,1.0521,10.86,0.075,0.9904,3.92,-5,2021,7,9,12,25,17,7/9/2021,12:25:17 PM,7/09/2021 12:25:17,6.554,139.13,86.0908,45,2311,2696,3141,0,23830,79,0,0.898,4.325,12:25:17 PM,51.17023158,2.62587617,3.3,RTK       ,,,,,,,2021-07-09 12:25:17+00:00,,,,,,,,
0,0,0,0,0,0,0,0.0051,0.0534,0.4386,1.166,1.0697,0.9504,0.9947,0.9542,1.0502,1.0118,1.1342,1.0155,1.2514,1.5332,2.2339,3.9968,6.6526,7.2232,6.3858,5.0784,4.2056,3.9776,4.8941,7.914,17.1044,35.6966,50.1164,30.2991,13.6119,65.1904,1.0227,10.85,0.075,0.9898,3.98,-5,2021,7,9,12,25,18,7/9/2021,12:25:18 PM,7/09/2021 12:25:18,6.554,197.94,212.0188,45,2320,2697,3153,0,23838,77,0,0.873,5.434,12:25:18 PM,51.17022485,2.62585433,3.3,RTK       ,,,,,,,2021-07-09 12:25:18+00:00,,,,,,,,
0,0,0,0,0,0,0.0015,0.0139,0.0859,0.4435,0.9373,0.8942,0.7837,0.7769,0.7582,0.8492,0.8841,1.0079,0.975,1.144,1.3382,1.6509,2.3257,3.2105,3.3932,3.2145,2.917,2.8006,3.0064,3.6561,4.7924,6.4887,8.0335,7.783,4.9138,2.027,41.8608,1.0527,10.84,0.075,0.9898,4.01,-5,2021,7,9,12,25,19,7/9/2021,12:25:19 PM,7/09/2021 12:25:19,6.554,119.86,71.107,45,2315,2695,3164,0,23843,78,0,0.899,4.275,12:25:19 PM,51.17021832,2.62583217,3.3,RTK       ,,,,,,,2021-07-09 12:25:19+00:00,,,,,,,,
0,0,0,0,0,0.0031,0.0088,0.0405,0.1807,0.6676,1.0241,0.8294,0.6972,0.711,0.7427,0.8706,0.9285,1.0992,1.0966,1.3366,1.6238,2.2246,3.6431,5.6139,5.8849,4.7235,3.2314,2.3564,2.1596,2.6665,3.9545,6.5027,9.8849,11.2846,7.4201,3.5623,48.3188,1.0643,10.86,0.075,0.9916,3.98,-5,2021,7,9,12,25,20,7/9/2021,12:25:20 PM,7/09/2021 12:25:20,6.554,122.75,86.9736,45,2316,2696,3154,0,23839,83,0,0.907,3.907,12:25:20 PM,51.17021183,2.62581083,3.2,RTK       ,,,,,,,2021-07-09 12:25:20+00:00,,,,,,,,
0,0,0,0,0,0,0,0.0074,0.0565,0.3544,0.8086,0.7855,0.7002,0.7208,0.7121,0.7968,0.7932,0.8691,0.7901,0.9173,1.0615,1.3347,1.9599,2.8013,2.9392,2.7042,2.3175,2.0532,2.0601,2.4813,3.5368,5.6114,8.4885,9.9315,7.1838,3.5033,33.5617,1.0814,10.84,0.075,0.9904,4,-5,2021,7,9,12,25,21,7/9/2021,12:25:21 PM,7/09/2021 12:25:21,6.554,138.01,68.2802,45,2311,2703,3157,0,23842,76,0,0.923,3.223,12:25:21 PM,51.17020487,2.62579,3.2,RTK       ,,,,,,,2021-07-09 12:25:21+00:00,,,,,,,,
0,0,0,0,0,0.0028,0.0084,0.0388,0.1639,0.5762,0.8832,0.735,0.6325,0.6489,0.6831,0.7965,0.8401,0.9537,0.911,1.0417,1.1868,1.4925,2.196,3.3029,3.909,4.0868,3.8336,3.4234,3.1076,3.055,3.3227,4.1051,5.3353,6.2577,4.9221,2.2631,41.8321,1.0671,10.86,0.075,0.9898,4.05,-5,2021,7,9,12,25,22,7/9/2021,12:25:22 PM,7/09/2021 12:25:22,6.554,110.93,64.7154,45,2331,2683,3171,0,23850,78,0,0.911,3.734,12:25:22 PM,51.17019812,2.62576833,3.4,RTK       ,,,,,,,2021-07-09 12:25:22+00:00,,,,,,,,
0,0,0,0,0,0.0017,0.0055,0.0275,0.1416,0.6001,0.9894,0.8196,0.7152,0.7605,0.7957,0.9237,0.9554,1.1212,1.0927,1.3274,1.6075,2.1539,3.3186,4.7362,4.7761,4.1539,3.3686,2.8406,2.6915,3.0314,3.917,5.977,9.2364,11.8146,8.5209,4.4605,46.8725,1.065,10.86,0.075,0.9916,3.99,-5,2021,7,9,12,25,23,7/9/2021,12:25:23 PM,7/09/2021 12:25:23,6.554,128.56,86.8822,45,2311,2689,3151,0,23840,82,0,0.908,3.882,12:25:23 PM,51.17019173,2.62574583,3.3,RTK       ,,,,,,,2021-07-09 12:25:23+00:00,,,,,,,,
0,0,0,0,0.0014,0.0079,0.0166,0.052,0.1806,0.5416,0.7617,0.6665,0.581,0.5959,0.6349,0.741,0.7863,0.878,0.8341,0.9276,1.0271,1.2514,1.7626,2.6006,3.1829,3.5893,3.7451,3.7581,3.7237,3.7132,3.751,3.9939,4.5978,5.6337,5.9468,3.5585,40.3121,1.0753,10.85,0.075,0.9898,4,-5,2021,7,9,12,25,24,7/9/2021,12:25:24 PM,7/09/2021 12:25:24,6.554,120.51,64.0428,45,2310,2694,3135,0,23842,83,0,0.918,3.428,12:25:24 PM,51.17018515,2.62572467,3.1,RTK       ,,,,,,,2021-07-09 12:25:24+00:00,,,,,,,,
0,0,0,0,0,0,0,0.0069,0.0556,0.3657,0.8581,0.84,0.7234,0.7018,0.6509,0.7062,0.712,0.8005,0.7545,0.8867,1.0401,1.2848,1.8363,2.5994,2.7806,2.6602,2.3756,2.1422,2.0752,2.228,2.5901,3.1588,3.6695,3.5185,2.3074,0.969,31.6748,1.0896,10.84,0.075,0.991,4.05,-5,2021,7,9,12,25,25,7/9/2021,12:25:25 PM,7/09/2021 12:25:25,6.554,94.11,45.298,45,2315,2686,3161,0,23849,78,0,0.929,2.945,12:25:25 PM,51.17017892,2.625704,3.2,RTK       ,,,,,,,2021-07-09 12:25:25+00:00,,,,,,,,
0,0,0,0,0,0.0011,0.0039,0.0224,0.1204,0.5353,0.97,0.8301,0.7346,0.7628,0.7688,0.8567,0.8543,0.9613,0.9092,1.1032,1.3329,1.8784,3.1595,5.0413,5.5797,5.0434,4.034,3.3111,3.1413,3.7814,5.5614,9.5295,14.7677,15.9099,8.7737,3.7251,51.2985,1.0425,10.85,0.075,0.991,4.08,-5,2021,7,9,12,25,26,7/9/2021,12:25:26 PM,7/09/2021 12:25:26,6.554,143.28,104.0045,45,2325,2690,3168,0,23855,81,0,0.889,4.714,12:25:26 PM,51.1701724,2.62568217,3.3,RTK       ,,,,,,,2021-07-09 12:25:26+00:00,,,,,,,,
0,0,0,0,0,0,0.0017,0.0133,0.0849,0.4452,0.8832,0.8048,0.711,0.7373,0.743,0.8459,0.8593,0.9711,0.912,1.0859,1.2874,1.7388,2.824,4.525,5.1741,4.8816,4.0219,3.2684,2.9303,3.1895,4.22,6.7295,10.7752,13.2701,9.0039,4.1466,47.1596,1.0664,10.84,0.075,0.9892,4.1,-5,2021,7,9,12,25,27,7/9/2021,12:25:27 PM,7/09/2021 12:25:27,6.554,137.98,91.085,45,2321,2685,3155,0,23858,79,0,0.911,3.736,12:25:27 PM,51.17016592,2.6256605,3.3,RTK       ,,,,,,,2021-07-09 12:25:27+00:00,,,,,,,,
0,0,0,0,0,0,0.0025,0.0186,0.1002,0.4528,0.8703,0.8083,0.7099,0.7106,0.702,0.7784,0.7917,0.8765,0.8363,0.9905,1.17,1.521,2.3301,3.5022,3.8765,3.5656,2.963,2.5549,2.462,2.6813,3.1236,3.8073,4.5406,4.7565,3.7076,1.4557,38.3988,1.0657,10.85,0.075,0.9904,4.08,-5,2021,7,9,12,25,28,7/9/2021,12:25:28 PM,7/09/2021 12:25:28,6.554,101.46,56.6665,45,2317,2690,3166,0,23855,74,0,0.909,3.809,12:25:28 PM,51.17015992,2.62563833,3.2,RTK       ,,,,,,,2021-07-09 12:25:28+00:00,,,,,,,,
0,0,0,0,0,0.0013,0.0047,0.0265,0.1218,0.4789,0.8477,0.8029,0.7353,0.7763,0.8121,0.9337,0.9656,1.0634,0.9941,1.1191,1.2555,1.5698,2.314,3.4737,4.0198,3.9272,3.3464,2.7403,2.3676,2.3289,2.6529,3.5159,4.8951,5.9509,4.877,2.3293,39.6795,1.0582,10.85,0.075,0.9904,4.06,-5,2021,7,9,12,25,29,7/9/2021,12:25:29 PM,7/09/2021 12:25:29,6.554,104.63,61.2479,45,2321,2706,3167,0,23851,78,0,0.903,4.092,12:25:29 PM,51.17015362,2.6256175,3,RTK       ,,,,,,,2021-07-09 12:25:29+00:00,,,,,,,,
0,0,0,0,0,0,0,0.009,0.0638,0.3779,0.8372,0.8333,0.7377,0.739,0.7143,0.7926,0.8025,0.888,0.8242,0.9459,1.0832,1.3129,1.8393,2.574,2.761,2.6265,2.2671,1.8961,1.6582,1.6245,1.8355,2.427,3.5324,5.0116,5.2891,3.072,30.0437,1.0835,10.85,0.075,0.991,4.05,-5,2021,7,9,12,25,30,7/9/2021,12:25:30 PM,7/09/2021 12:25:30,6.554,107.33,49.3757,45,2320,2693,3148,0,23849,77,0,0.924,3.171,12:25:30 PM,51.17014745,2.625597,3.2,RTK       ,,,,,,,2021-07-09 12:25:30+00:00,,,,,,,,
0,0,0,0,0,0,0.0038,0.0231,0.1228,0.5346,0.898,0.7785,0.6541,0.6574,0.6668,0.7636,0.785,0.8876,0.8312,0.957,1.0992,1.4018,2.0996,3.0742,3.3266,3.121,2.6693,2.2795,2.046,2.0065,2.133,2.5641,3.2682,3.8533,3.1492,1.3694,33.8202,1.0842,10.85,0.075,0.9898,4.07,-5,2021,7,9,12,25,31,7/9/2021,12:25:31 PM,7/09/2021 12:25:31,6.554,92.48,48.0244,44,2322,2688,3172,0,23853,74,0,0.925,3.099,12:25:31 PM,51.17014105,2.62557467,3.5,RTK       ,,,,,,,2021-07-09 12:25:31+00:00,,,,,,,,
0,0,0,0,0,0,0.0024,0.0153,0.0882,0.4267,0.8251,0.7675,0.6966,0.7311,0.7414,0.8398,0.8549,0.9557,0.8903,1.0248,1.1742,1.4869,2.1935,3.2325,3.6326,3.6808,3.5255,3.4418,3.6262,4.316,5.7154,8.2575,11.3797,12.2304,8.2624,4.1706,44.8852,1.0609,10.85,0.075,0.9916,4.08,-5,2021,7,9,12,25,32,7/9/2021,12:25:32 PM,7/09/2021 12:25:32,6.554,145.43,89.1856,45,2327,2674,3167,0,23855,78,0,0.904,4.036,12:25:32 PM,51.17013428,2.62555283,3.2,RTK       ,,,,,,,2021-07-09 12:25:32+00:00,,,,,,,,
0,0,0,0,0,0,0,0.0076,0.0578,0.3615,0.8315,0.816,0.7173,0.7223,0.7058,0.783,0.7791,0.8418,0.761,0.8747,1.0034,1.2277,1.7385,2.4432,2.6275,2.5502,2.3033,2.0544,1.906,1.9113,2.0828,2.4392,2.8536,2.9738,2.2337,0.9652,30.1077,1.0869,10.83,0.075,0.9892,4.08,-5,2021,7,9,12,25,33,7/9/2021,12:25:33 PM,7/09/2021 12:25:33,6.554,87.62,41.5735,45,2313,2683,3144,0,23855,77,0,0.928,2.974,12:25:33 PM,51.17012877,2.62553217,3.1,RTK       ,,,,,,,2021-07-09 12:25:33+00:00,,,,,,,,
0,0,0,0,0,0,0.0023,0.0163,0.092,0.4361,0.8542,0.8252,0.7409,0.7558,0.7546,0.8345,0.8406,0.9191,0.8539,0.9658,1.0902,1.3012,1.7787,2.4393,2.6367,2.5773,2.3397,2.0931,1.9414,1.9262,2.0585,2.369,2.7305,2.7926,2.1141,1.0112,31.0736,1.0684,10.85,0.075,0.9898,4.08,-5,2021,7,9,12,25,34,7/9/2021,12:25:34 PM,7/09/2021 12:25:34,6.554,84.01,42.0913,45,2327,2692,3167,0,23855,72,0,0.912,3.683,12:25:34 PM,51.17012315,2.625511,3.3,RTK       ,,,,,,,2021-07-09 12:25:34+00:00,,,,,,,,
0,0,0,0,0,0,0.0034,0.0226,0.1134,0.4752,0.8581,0.7807,0.6757,0.6692,0.667,0.7471,0.7733,0.8721,0.8514,1.0087,1.1926,1.4799,2.074,2.7967,2.8643,2.5489,2.082,1.7267,1.5963,1.7532,2.3003,3.494,5.3974,7.0878,6.2166,3.1947,30.9328,1.0787,10.85,0.075,0.9904,4.09,-5,2021,7,9,12,25,35,7/9/2021,12:25:35 PM,7/09/2021 12:25:35,6.554,119.23,56.3231,45,2324,2692,3159,0,23856,74,0,0.92,3.325,12:25:35 PM,51.17011675,2.62548917,3.3,RTK       ,,,,,,,2021-07-09 12:25:35+00:00,,,,,,,,
0,0,0,0,0,0,0,0.0091,0.0628,0.36,0.7863,0.76,0.6785,0.6869,0.6638,0.7232,0.7123,0.7781,0.7204,0.8542,1.0091,1.33,2.0928,3.2907,3.7989,3.6646,3.0595,2.4313,2.0372,1.9936,2.431,3.8861,7.2611,12.598,14.0009,7.82,34.9343,1.0787,10.85,0.075,0.9904,4.08,-5,2021,7,9,12,25,36,7/9/2021,12:25:36 PM,7/09/2021 12:25:36,6.554,158.75,80.5004,45,2316,2685,3155,0,23855,75,0,0.92,3.325,12:25:36 PM,51.17011083,2.62546767,3.2,RTK       ,,,,,,,2021-07-09 12:25:36+00:00,,,,,,,,
0,0,0,0,0,0,0.0016,0.0135,0.0834,0.4291,0.8883,0.8259,0.722,0.709,0.673,0.7275,0.7292,0.8245,0.8076,1.0224,1.2915,1.8388,3.099,4.7759,4.8602,3.7088,2.3781,1.5923,1.3305,1.54,2.3043,4.0197,6.8881,9.9511,10.9447,6.9705,37.1764,1.0637,10.85,0.075,0.9916,4.09,-5,2021,7,9,12,25,37,7/9/2021,12:25:37 PM,7/09/2021 12:25:37,6.554,137.34,75.9504,45,2320,2699,3165,0,23856,76,0,0.906,3.933,12:25:37 PM,51.17010492,2.62544633,3.1,RTK       ,,,,,,,2021-07-09 12:25:37+00:00,,,,,,,,
0,0,0,0,0,0,0,0.0061,0.0514,0.3538,0.8665,0.8409,0.7368,0.7441,0.7254,0.8103,0.8004,0.8603,0.7661,0.8939,1.0383,1.3407,2.0756,3.3356,4.1752,4.7982,5.2188,5.6465,5.9839,5.9805,5.3163,4.2504,3.1191,2.1637,1.2621,0.3792,53.3656,1.065,10.84,0.075,0.991,4.09,-5,2021,7,9,12,25,38,7/9/2021,12:25:38 PM,7/09/2021 12:25:38,6.554,95.97,64.5401,45,2317,2703,3148,0,23856,76,0,0.908,3.858,12:25:38 PM,51.17009857,2.62542533,3.2,RTK       ,,,,,,,2021-07-09 12:25:38+00:00,,,,,,,,
0,0,0,0,0,0,0.0018,0.0139,0.0801,0.3944,0.8316,0.825,0.7539,0.7652,0.7414,0.8076,0.81,0.8939,0.8463,0.9945,1.165,1.5215,2.3144,3.4688,3.898,3.7955,3.3799,2.9836,2.8154,2.9632,3.4471,4.1928,4.5554,3.7857,2.0801,0.8504,40.512,1.0643,10.84,0.075,0.991,4.08,-5,2021,7,9,12,25,39,7/9/2021,12:25:39 PM,7/09/2021 12:25:39,6.554,95.42,55.9765,44,2316,2700,3159,0,23855,74,0,0.907,3.884,12:25:39 PM,51.17009258,2.625404,3.2,RTK       ,,,,,,,2021-07-09 12:25:39+00:00,,,,,,,,
0,0,0,0,0,0,0.0011,0.01,0.0681,0.3834,0.8048,0.7643,0.6748,0.6917,0.6913,0.7782,0.784,0.86,0.7859,0.9043,1.0376,1.2851,1.8612,2.6857,2.9319,2.8215,2.4852,2.1696,2.0255,2.1321,2.5387,3.3775,4.574,5.4493,4.5596,2.4573,32.176,1.0876,10.85,0.075,0.9898,4.15,-5,2021,7,9,12,25,40,7/9/2021,12:25:40 PM,7/09/2021 12:25:40,6.554,110.95,52.5935,45,2328,2696,3173,0,23866,70,0,0.928,2.973,12:25:40 PM,51.17008673,2.62538267,3.2,RTK       ,,,,,,,2021-07-09 12:25:40+00:00,,,,,,,,
0,0,0,0,0,0.0023,0.0079,0.0403,0.186,0.6956,1.0506,0.8252,0.6926,0.723,0.7815,0.9502,1.0234,1.1833,1.092,1.1891,1.2883,1.609,2.4761,4.0363,5.0581,5.2244,4.3842,3.3432,2.6598,2.5639,3.0218,4.7197,8.8225,15.1879,15.374,11.8833,46.1081,1.0623,10.85,0.075,0.9898,4.1,-5,2021,7,9,12,25,41,7/9/2021,12:25:41 PM,7/09/2021 12:25:41,6.554,154.78,102.0956,45,2313,2692,3148,0,23857,70,0,0.907,3.914,12:25:41 PM,51.17008073,2.6253615,3.2,RTK       ,,,,,,,2021-07-09 12:25:41+00:00,,,,,,,,
0,0,0,0,0.0015,0.0113,0.0265,0.0902,0.3216,0.9312,1.1956,0.8396,0.6835,0.6743,0.6963,0.8075,0.8766,1.0714,1.1142,1.3575,1.6503,2.1461,3.1972,4.4291,4.3426,3.4077,2.2785,1.4969,1.1108,1.0938,1.5273,3.1302,7.7453,17.7549,25.2646,22.113,37.3791,1.037,10.84,0.075,0.991,4.08,-5,2021,7,9,12,25,42,7/9/2021,12:25:42 PM,7/09/2021 12:25:42,6.554,183.97,113.387,45,2314,2709,3147,0,23854,65,0,0.884,4.924,12:25:42 PM,51.1700748,2.6253395,3.3,RTK       ,,,,,,,2021-07-09 12:25:42+00:00,,,,,,,,
0,0,0,0,0,0,0,0.01,0.0701,0.4058,0.8894,0.8283,0.7342,0.7495,0.7367,0.8267,0.8415,0.9515,0.893,1.0552,1.2434,1.6012,2.3901,3.4115,3.5303,3.1664,2.6455,2.2935,2.2463,2.6145,3.499,5.2103,7.3498,8.1768,5.7248,3.1868,37.6336,1.0725,10.84,0.075,0.9904,4.13,-5,2021,7,9,12,25,43,7/9/2021,12:25:43 PM,7/09/2021 12:25:43,6.554,122.61,67.282,45,2327,2699,3180,0,23863,56,0,0.915,3.553,12:25:43 PM,51.17006868,2.62531833,3,RTK       ,,,,,,,2021-07-09 12:25:43+00:00,,,,,,,,
0,0,0,0,0,0,0.002,0.0165,0.1071,0.557,1.0872,0.886,0.748,0.7569,0.7531,0.8652,0.8981,1.0541,1.0072,1.2053,1.4362,1.9726,3.2985,5.4017,6.1067,5.3173,3.637,2.1992,1.3581,1.0903,1.3338,2.8169,8.2984,24.0606,40.1483,36.8244,43.0951,1.0391,10.84,0.075,0.9892,4.12,-5,2021,7,9,12,25,44,7/9/2021,12:25:44 PM,7/09/2021 12:25:44,6.554,215.99,155.2437,45,2331,2686,3171,0,23861,58,0,0.887,4.774,12:25:44 PM,51.17006227,2.62529883,3.1,RTK       ,,,,,,,2021-07-09 12:25:44+00:00,,,,,,,,
0,0,0,0,0,0,0.0027,0.0202,0.1111,0.5068,0.9431,0.8078,0.658,0.6176,0.6021,0.7043,0.782,0.9244,0.9007,1.0338,1.1816,1.4592,2.1036,3.1108,3.6205,3.742,3.5083,3.1716,2.9416,3.0339,3.6114,5.2092,8.2442,11.1084,9.1179,5.2668,40.0991,1.0616,10.84,0.075,0.991,4.07,-5,2021,7,9,12,25,45,7/9/2021,12:25:45 PM,7/09/2021 12:25:45,6.554,141.21,79.0457,45,2312,2694,3151,0,23853,56,0,0.905,3.987,12:25:45 PM,51.17005627,2.62527733,3.3,RTK       ,,,,,,,2021-07-09 12:25:45+00:00,,,,,,,,
0,0,0,0,0,0.0015,0.0053,0.0303,0.1601,0.6817,1.1053,0.8406,0.7083,0.7621,0.8444,1.0317,1.086,1.1999,1.0294,1.0634,1.0938,1.2821,1.8599,2.8076,3.1705,3.0814,2.7713,2.6562,2.8244,3.4021,4.2426,5.431,6.3749,6.2234,3.8345,1.4166,39.7419,1.0705,10.83,0.075,0.9898,4.11,-5,2021,7,9,12,25,46,7/9/2021,12:25:46 PM,7/09/2021 12:25:46,6.554,107.53,63.0222,45,2323,2694,3175,0,23859,53,0,0.914,3.606,12:25:46 PM,51.17005048,2.62525567,3.1,RTK       ,,,,,,,2021-07-09 12:25:46+00:00,,,,,,,,
0,0,0,0,0,0,0.0036,0.0218,0.1096,0.4594,0.8023,0.704,0.6089,0.6167,0.6291,0.7164,0.7333,0.8117,0.7593,0.8805,1.0173,1.3197,2.0292,3.2,3.903,4.1244,3.8514,3.4138,3.0099,2.731,2.5439,2.5374,2.7569,3.1332,3.0983,1.6369,39.0002,1.0794,10.85,0.075,0.9892,4.11,-5,2021,7,9,12,25,47,7/9/2021,12:25:47 PM,7/09/2021 12:25:47,6.554,95.47,52.1625,45,2330,2697,3173,0,23859,55,0,0.922,3.252,12:25:47 PM,51.17004458,2.62523533,3,RTK       ,,,,,,,2021-07-09 12:25:47+00:00,,,,,,,,
0,0,0,0,0,0,0.0017,0.015,0.0923,0.4685,0.9209,0.8338,0.7052,0.6865,0.6705,0.7602,0.8042,0.9328,0.918,1.0929,1.2986,1.5775,2.1563,2.8525,2.8916,2.6348,2.2691,2.0108,1.9582,2.1757,2.6862,3.6003,4.7442,5.3494,4.1314,1.9317,33.4138,1.076,10.84,0.075,0.9892,4.07,-5,2021,7,9,12,25,48,7/9/2021,12:25:48 PM,7/09/2021 12:25:48,6.554,104.54,53.1707,45,2315,2700,3146,0,23853,55,0,0.919,3.379,12:25:48 PM,51.17003835,2.62521517,3.1,RTK       ,,,,,,,2021-07-09 12:25:48+00:00,,,,,,,,
0,0,0,0,0,0.0012,0.0046,0.0276,0.1364,0.5521,0.8829,0.7284,0.6095,0.6275,0.6592,0.7732,0.8043,0.9084,0.8505,0.9902,1.1477,1.5018,2.3613,3.7513,4.4892,4.4975,3.8219,3.0221,2.4096,2.163,2.2835,3.2764,6.3277,13.924,22.6108,19.3198,40.0049,1.0712,10.86,0.075,0.991,4.09,-5,2021,7,9,12,25,49,7/9/2021,12:25:49 PM,7/09/2021 12:25:49,6.554,182.87,105.4637,45,2320,2695,3163,0,23856,55,0,0.913,3.628,12:25:49 PM,51.170032,2.62519433,3.2,RTK       ,,,,,,,2021-07-09 12:25:49+00:00,,,,,,,,
0,0,0,0,0,0,0,0.008,0.0616,0.3835,0.8785,0.8294,0.7216,0.7183,0.7054,0.8174,0.8686,1.0093,0.956,1.1128,1.2902,1.6183,2.3754,3.3944,3.5361,3.1371,2.5314,2.1193,2.0666,2.5519,3.881,7.0498,12.624,17.1003,12.75,6.0257,37.5721,1.0541,10.84,0.075,0.9904,4.08,-5,2021,7,9,12,25,50,7/9/2021,12:25:50 PM,7/09/2021 12:25:50,6.554,161.45,93.1221,45,2316,2701,3160,0,23855,62,0,0.899,4.247,12:25:50 PM,51.17002608,2.6251735,3.1,RTK       ,,,,,,,2021-07-09 12:25:50+00:00,51.16991467,2.6254435,-12.6,0.1,0.1,269.82,0.02,
0,0,0,0,0,0,0,0.0063,0.0525,0.3553,0.8441,0.8129,0.7167,0.7328,0.7223,0.8179,0.8265,0.9095,0.8154,0.9273,1.0517,1.2886,1.8606,2.6609,2.8359,2.6853,2.3921,2.1982,2.2371,2.6254,3.403,4.5331,5.2054,4.3692,2.3483,0.9717,33.7783,1.0801,10.84,0.075,0.9898,4.09,-5,2021,7,9,12,25,51,7/9/2021,12:25:51 PM,7/09/2021 12:25:51,6.554,101.92,51.2058,45,2320,2701,3158,0,23856,63,0,0.922,3.25,12:25:51 PM,51.17001987,2.62515333,3.1,RTK       ,,,,,,,2021-07-09 12:25:51+00:00,51.16993483,2.625447333,-15.64,0.1,0.1,269.54,0.02,
0,0,0,0,0,0.0017,0.0054,0.0295,0.1381,0.5444,0.924,0.8023,0.6814,0.665,0.6508,0.7188,0.7391,0.8361,0.8142,0.9799,1.1757,1.5706,2.4572,3.7242,4.1441,3.8621,3.2531,2.8374,2.7602,3.0691,3.7149,4.9432,6.758,8.4101,7.4747,3.4683,41.0993,1.0316,10.85,0.075,0.9898,4.12,-5,2021,7,9,12,25,52,7/9/2021,12:25:52 PM,7/09/2021 12:25:52,6.554,125.94,72.1537,45,2321,2692,3159,0,23860,68,0,0.881,5.088,12:25:52 PM,51.17001373,2.62513317,3.1,RTK       ,,,,,,,2021-07-09 12:25:52+00:00,,,,,,,,
0,0,0,0,0,0,0,0.0054,0.048,0.3449,0.8511,0.8325,0.7193,0.7154,0.6966,0.8063,0.8473,0.9742,0.9059,1.0515,1.2159,1.5275,2.2659,3.3311,3.5843,3.322,2.7662,2.2586,1.9691,2.0552,2.6849,4.5375,8.4186,13.6479,13.5685,7.7079,35.7791,1.0766,10.84,0.075,0.9898,4.15,-5,2021,7,9,12,25,53,7/9/2021,12:25:53 PM,7/09/2021 12:25:53,6.554,156.63,83.6597,45,2318,2695,3168,0,23866,67,0,0.919,3.377,12:25:53 PM,51.17000765,2.62511283,3,RTK       ,,,,,,,2021-07-09 12:25:53+00:00,,,,,,,,
0,0,0,0,0,0.0032,0.0089,0.0399,0.1844,0.7012,1.0934,0.8499,0.7389,0.7945,0.8718,1.0592,1.1334,1.3053,1.2037,1.3529,1.5135,1.9997,3.2573,5.2313,5.8605,5.0803,3.604,2.52,2.0801,2.3743,3.5987,6.9874,13.5516,20.1209,15.6587,10.2896,48.4603,1.05,10.84,0.075,0.9904,4.15,-5,2021,7,9,12,25,54,7/9/2021,12:25:54 PM,7/09/2021 12:25:54,6.554,156.45,115.0684,45,2321,2710,3160,0,23865,63,0,0.896,4.403,12:25:54 PM,51.17000165,2.62509267,3,RTK       ,,,,,,,2021-07-09 12:25:54+00:00,,,,,,,,
0,0,0,0,0,0,0,0.0051,0.047,0.3476,0.8793,0.8418,0.771,0.828,0.8501,1.011,1.0613,1.2058,1.0571,1.1265,1.1937,1.4077,2.0373,3.2,3.932,4.2973,4.1397,3.7285,3.2721,3.0839,3.2786,4.7225,9.244,18.4238,20.6135,11.4806,43.6024,1.0596,10.84,0.075,0.991,4.15,-5,2021,7,9,12,25,55,7/9/2021,12:25:55 PM,7/09/2021 12:25:55,6.554,172.06,108.0866,45,2313,2714,3152,0,23865,57,0,0.903,4.064,12:25:55 PM,51.16999575,2.62507233,3,RTK       ,,,,,,,2021-07-09 12:25:55+00:00,,,,,,,,
0,0,0,0,0,0,0.002,0.0168,0.1041,0.5196,0.966,0.7829,0.6171,0.5788,0.572,0.698,0.8064,1.0032,0.9982,1.1667,1.359,1.7053,2.4846,3.4536,3.4363,2.8906,2.2175,1.748,1.5789,1.7957,2.5977,4.7188,9.0183,14.6115,15.1921,10.8937,34.099,1.0623,10.84,0.075,0.9892,4.13,-5,2021,7,9,12,25,56,7/9/2021,12:25:56 PM,7/09/2021 12:25:56,6.554,167.03,88.5334,44,2316,2709,3154,0,23862,49,0,0.907,3.89,12:25:56 PM,51.16998922,2.62505233,3.1,RTK       ,,,,,,,2021-07-09 12:25:56+00:00,51.17006583,2.625589167,-2.64,0.09,0.09,269.95,0.02,
0,0,0,0,0,0.0013,0.0044,0.0263,0.1265,0.5115,0.9013,0.792,0.6711,0.6589,0.6798,0.8265,0.9323,1.0922,1.0482,1.185,1.3321,1.6476,2.3581,3.4321,3.9677,4.1367,4.0807,4.1532,4.5331,5.3903,6.8053,9.2816,13.1039,18.1083,18.7294,7.3791,51.2942,1.0343,10.84,0.075,0.9904,4.13,-5,2021,7,9,12,25,57,7/9/2021,12:25:57 PM,7/09/2021 12:25:57,6.554,168.54,117.8965,45,2317,2719,3164,0,23862,48,0,0.882,5.006,12:25:57 PM,51.16998278,2.625032,3.1,RTK       ,,,,,,,2021-07-09 12:25:57+00:00,51.17006633,2.625564,-4.41,0.09,0.09,269.94,0.02,
0,0,0,0,0,0,0,0.0072,0.0686,0.5057,1.2144,1.0041,0.8463,0.871,0.8491,0.949,0.9176,1.0106,0.8846,1.0437,1.2222,1.7127,3.0817,5.7735,7.7306,8.6841,8.7669,9.1157,9.9662,11.9091,14.274,17.7894,20.739,21.4949,16.1222,7.5635,92.4086,1.0261,10.84,0.075,0.9898,4.19,-5,2021,7,9,12,25,58,7/9/2021,12:25:58 PM,7/09/2021 12:25:58,6.554,159.73,176.1175,45,2325,2724,3163,0,23872,46,0,0.876,5.301,12:25:58 PM,51.1699767,2.62501267,2.9,RTK       ,,,,,,,2021-07-09 12:25:58+00:00,,,,,,,,
0,0,0,0,0,0,0,0.0048,0.0415,0.2976,0.7644,0.8153,0.757,0.7826,0.7503,0.81,0.7838,0.8446,0.7662,0.8981,1.05,1.3202,1.9236,2.7365,2.8863,2.6951,2.3432,2.0722,2.0253,2.2937,2.9775,4.2369,5.8519,6.5679,4.7326,1.972,32.6398,1.0862,10.84,0.075,0.991,4.19,-5,2021,7,9,12,25,59,7/9/2021,12:25:59 PM,7/09/2021 12:25:59,6.554,116.11,56.0007,45,2318,2730,3163,0,23871,43,0,0.926,3.071,12:25:59 PM,51.1699707,2.62499333,3,RTK       ,,,,,,,2021-07-09 12:25:59+00:00,,,,,,,,
0,0,0,0,0,0,0.0028,0.0212,0.1193,0.5455,0.9656,0.8231,0.656,0.6053,0.5736,0.6269,0.6291,0.7039,0.6825,0.8267,0.9977,1.3167,2.0809,3.3772,4.1956,4.516,4.4043,4.2814,4.3052,4.4649,4.5134,4.5724,4.9328,5.9361,6.5166,3.4514,46.2348,1.0739,10.84,0.075,0.991,4.23,-5,2021,7,9,12,26,0,7/9/2021,12:26:00 PM,7/09/2021 12:26:00,6.554,121.9,71.6443,45,2325,2728,3169,0,23878,41,0,0.916,3.526,12:26:00 PM,51.16996415,2.62497317,3.1,RTK       ,,,,,,,2021-07-09 12:26:00+00:00,,,,,,,,0004_20210709_122616
0,0,0,0,0,0,0,0.0101,0.0703,0.3998,0.838,0.7855,0.6826,0.6876,0.6827,0.7771,0.7967,0.8827,0.8075,0.9157,1.0352,1.2623,1.8163,2.691,3.1067,3.1906,2.9496,2.6201,2.4208,2.4828,2.8466,3.592,4.4592,4.697,3.3708,1.6091,34.7583,1.0773,10.84,0.075,0.9892,4.25,-5,2021,7,9,12,26,1,7/9/2021,12:26:01 PM,7/09/2021 12:26:01,6.554,103.99,52.4865,45,2333,2717,3175,0,23881,42,0,0.92,3.328,12:26:01 PM,51.16995772,2.62495317,3,RTK       ,,,,,,,2021-07-09 12:26:01+00:00,,,,,,,,0004_20210709_122616
0,0,0,0,0,0,0.001,0.0095,0.065,0.373,0.8393,0.848,0.7691,0.7767,0.7375,0.7915,0.7819,0.8705,0.8315,1.0049,1.2103,1.5917,2.4369,3.591,3.8505,3.5466,3.107,3.0306,3.6053,5.1354,7.4582,9.1409,7.541,3.6517,1.1012,0.2861,47.2629,1.0555,10.83,0.075,0.991,4.26,-5,2021,7,9,12,26,2,7/9/2021,12:26:02 PM,7/09/2021 12:26:02,6.554,109.32,68.9837,45,2332,2708,3173,0,23883,43,0,0.9,4.219,12:26:02 PM,51.16995158,2.62493383,2.9,RTK       ,,,,,,,2021-07-09 12:26:02+00:00,51.170031,2.6254635,-4.41,0.06,0.06,269.83,0.02,0004_20210709_122616
0,0,0,0,0,0,0,0.0039,0.039,0.3188,0.8786,0.8961,0.7874,0.7896,0.7546,0.8438,0.8481,0.9299,0.8348,0.9592,1.0992,1.3409,1.9265,2.7785,3.0071,2.8578,2.4545,2.0869,1.968,2.2322,3.0129,4.4625,6.1548,6.6596,4.6512,2.0088,33.6483,1.0842,10.84,0.075,0.9898,4.25,-5,2021,7,9,12,26,3,7/9/2021,12:26:03 PM,7/09/2021 12:26:03,6.554,114.18,57.5851,44,2325,2706,3170,0,23881,44,0,0.925,3.099,12:26:03 PM,51.16994517,2.62491483,3,RTK       ,,,,,,,2021-07-09 12:26:03+00:00,51.17001167,2.625444833,-4.67,0.06,0.06,269.87,0.02,0004_20210709_122616
0,0,0,0,0,0.0016,0.0053,0.0298,0.1434,0.5801,1.0051,0.9128,0.7993,0.8001,0.8009,0.9002,0.9405,1.0736,1.0434,1.2241,1.4319,1.7914,2.5597,3.5546,3.7796,3.5695,3.1416,2.8016,2.689,2.9642,3.7165,5.3429,7.6053,9.524,8.1237,4.639,42.2598,1.0589,10.84,0.075,0.9904,4.24,-5,2021,7,9,12,26,4,7/9/2021,12:26:04 PM,7/09/2021 12:26:04,6.554,126.69,77.4948,45,2322,2715,3173,0,23880,48,0,0.903,4.066,12:26:04 PM,51.16993848,2.6248955,3,RTK       ,,,,,,,2021-07-09 12:26:04+00:00,,,,,,,,0004_20210709_122616
0,0,0,0,0,0,0.0012,0.0115,0.0765,0.4115,0.7994,0.6989,0.5717,0.5602,0.5647,0.6628,0.701,0.7934,0.7371,0.8342,0.9416,1.1242,1.5684,2.2243,2.4427,2.4263,2.227,2.0027,1.8847,1.9749,2.3521,3.1198,4.2159,5.049,4.4065,2.2699,28.593,1.0951,10.84,0.075,0.991,4.26,-5,2021,7,9,12,26,5,7/9/2021,12:26:05 PM,7/09/2021 12:26:05,6.554,113.32,47.6542,45,2337,2705,3180,0,23882,53,0,0.934,2.745,12:26:05 PM,51.16993228,2.62487567,3,RTK       ,,,,,,,2021-07-09 12:26:05+00:00,,,,,,,,0004_20210709_122616
0,0,0,0,0,0,0,0.0076,0.0565,0.3497,0.8299,0.8447,0.7615,0.7735,0.7554,0.8395,0.845,0.9223,0.844,0.9558,1.0797,1.2895,1.7726,2.4645,2.6923,2.6995,2.5505,2.3909,2.336,2.4231,2.6372,2.9516,3.2541,3.2919,2.4413,1.0077,33.1212,1.0835,10.84,0.075,0.9892,4.26,-5,2021,7,9,12,26,6,7/9/2021,12:26:06 PM,7/09/2021 12:26:06,6.554,91.28,46.0681,44,2330,2709,3177,0,23882,59,0,0.925,3.1,12:26:06 PM,51.16992613,2.62485633,3,RTK       ,,,,,,,2021-07-09 12:26:06+00:00,,,,,,,,0004_20210709_122616
0,0,0,0,0,0,0,0.0068,0.0579,0.4,0.9457,0.9689,0.9016,1.0015,1.0678,1.2555,1.2502,1.319,1.077,1.1143,1.1476,1.3669,2.0319,3.1422,3.6406,3.5987,3.1228,2.77,2.8149,3.4792,4.6451,6.3804,7.9062,8.1856,5.6267,2.311,43.1261,1.0664,10.84,0.075,0.9904,4.26,-5,2021,7,9,12,26,7,7/9/2021,12:26:07 PM,7/09/2021 12:26:07,6.554,116.95,73.5358,44,2327,2705,3173,0,23882,55,0,0.91,3.783,12:26:07 PM,51.16991982,2.624837,2.9,RTK       ,,,,,,,2021-07-09 12:26:07+00:00,,,,,,,,0004_20210709_122616
0,0,0,0,0,0,0,0.0069,0.0562,0.3698,0.8624,0.8212,0.7337,0.7754,0.7841,0.8938,0.8892,0.9604,0.8374,0.9416,1.0548,1.3153,1.9521,2.8932,3.2179,3.1903,2.9436,2.7868,2.9548,3.7181,5.2233,7.2304,7.6799,5.0364,1.8922,0.658,40.1823,1.076,10.84,0.075,0.9898,4.25,-5,2021,7,9,12,26,8,7/9/2021,12:26:08 PM,7/09/2021 12:26:08,6.554,110.69,62.6793,44,2324,2709,3157,0,23881,52,0,0.918,3.402,12:26:08 PM,51.16991313,2.62481833,3,RTK       ,,,,,,,2021-07-09 12:26:08+00:00,51.17003967,2.625310833,-4.56,0.07,0.07,269.77,0.02,0004_20210709_122616
0,0,0,0,0,0,0.0014,0.0119,0.0754,0.3984,0.8329,0.8046,0.7227,0.7374,0.7236,0.7941,0.7893,0.8641,0.8044,0.9355,1.0856,1.3545,1.951,2.7674,2.9616,2.7674,2.3457,1.9496,1.7412,1.7963,2.1991,3.1537,4.8316,6.7374,6.635,4.0158,31.4151,1.0801,10.84,0.075,0.9892,4.26,-5,2021,7,9,12,26,9,7/9/2021,12:26:09 PM,7/09/2021 12:26:09,6.554,120.89,56.7889,44,2335,2704,3182,0,23883,52,0,0.923,3.227,12:26:09 PM,51.16990633,2.62479917,3.1,RTK       ,,,,,,,2021-07-09 12:26:09+00:00,51.17003667,2.625289,-4.62,0.07,0.07,269.78,0.02,0004_20210709_122616
