Volume conc (microl/l) 1,Volume conc (microl/l) 2,Volume conc (microl/l) 3,Volume conc (microl/l) 4,Volume conc (microl/l) 5,Volume conc (microl/l) 6,Volume conc (microl/l) 7,Volume conc (microl/l) 8,Volume conc (microl/l) 9,Volume conc (microl/l) 10,Volume conc (microl/l) 11,Volume conc (microl/l) 12,Volume conc (microl/l) 13,Volume conc (microl/l) 14,Volume conc (microl/l) 15,Volume conc (microl/l) 16,Volume conc (microl/l) 17,Volume conc (microl/l) 18,Volume conc (microl/l) 19,Volume conc (microl/l) 20,Volume conc (microl/l) 21,Volume conc (microl/l) 22,Volume conc (microl/l) 23,Volume conc (microl/l) 24,Volume conc (microl/l) 25,Volume conc (microl/l) 26,Volume conc (microl/l) 27,Volume conc (microl/l) 28,Volume conc (microl/l) 29,Volume conc (microl/l) 30,Volume conc (microl/l) 31,Volume conc (microl/l) 32,Volume conc (microl/l) 33,Volume conc (microl/l) 34,Volume conc (microl/l) 35,Volume conc (microl/l) 36,TVC_recal,Laser transmission Sensor [mW],Supply voltage in calibrated units [V],External Auxiliary input 1 in calibrated units [mW],Laser Reference sensor in calibrated units [mW],Depth in calibrated units [m],Temperature in calibrated units [C],year,Month,day,hour,minute,second,DATE,TIME,DATE  & Time (format gps),External Auxiliary input 2 in calibrated units [mW],Sauter Mean Diameter [?],Total Volume Concentration [ppm],Relative Humidity [%],Accelerometer X [counts],Accelerometer Y [counts],Accelerometer Z [counts],Raw pressure (most sign bit),Raw pressure (least sign 16 bits),Ambient light (counts),Not used,Computed optical transmission over path,Beam-attenuation (c) [m-1].,Current Time,Latitude_ship,Longitude_ship,Speed Over Ground,GPSfix,Row Labels,Average of Salinity,Average of Temperature_C,Average of Turbidity_NTU,Average of Depth_m,Average of Chlorohyll_ug_L,Time,VPR lat,VPR long,VPR depth,majoraxis,minoraxis,angle,devz,linename,datetime,waterniveau LAT,waterniveau LAT smooth,Sonarscope LAT correction,Lisst_depth_m_LAT,inverted Depth in calibrated units [m],D10,D50,D75-D25,D75/D25,D90,D90-D10,D90/D10,Krumbein(Qd),PSD_slope,"TVC_(0.0, 3.0]","TVC_(20.0, 200.0]","TVC_(200.0, 420.0]","TVC_(3.0, 20.0]",Trask(So),kurtosis_geom_um,mean_geom_um,mode_1,mode_2,mode_3,mode_4,mode_5,mode_6,skewness_geom_um,sorting_geom_um
0.0,0.0,0.0,0.0,0.0,0.0,0.0016,0.1591,0.7038,0.2373,0.0,0.0,0.0,0.0,0.0,0.0,0.0,0.0,0.0,0.0,0.0,0.0,0.0,0.0145,0.1531,0.8876,2.4851,3.6336,4.1377,5.4446,8.532,12.1136,10.6289,3.2904,0.1797,0.0016,52.6042,1.0234,10.93,0.069,0.9974,0.08,-5.0,2021.0,7.0,9.0,12.0,21.0,46.0,7/9/2021,12:21:46 PM,7/09/2021 12:21:46,6.554,183.0,52.6042,47.0,2373.0,2713.0,3209.0,0.0,23226.0,29199.0,0.0,0.867,5.714,12:21:46 PM,51.17138722,2.62908467,1.0,RTK       ,,,,,,,2021-07-09 12:21:46+00:00,,,,,,,,,2021-07-09 12:21:46,5.0560000000000045,4.940668410677278,4.9805313535829345,4.8606684106772775,-0.08,103.85840332520594,194.66468261571822,90.39739342889473,1.6314811183697264,265.2382389892574,161.37983566405148,2.5538447587984954,0.7061822907751707,3.8229909963163586,0.0,25.2882,26.214199999999998,1.1018,0.7829048329835896,23.48043010466932,183.340699635045,230.0,5.11,,,,,-4.022435304298365,1.85683161354265
0.0,0.0,0.0,0.0,0.0,0.0367,0.2182,0.5354,0.3892,0.0402,0.0,0.0,0.0,0.0,0.0,0.0,0.0,0.0,0.0,0.0,0.0,0.0,0.0012,0.0224,0.2016,1.0453,2.7074,3.7546,4.0627,5.0352,7.5925,11.6026,13.7233,8.106,1.3563,0.0652,60.495999999999995,1.0247,10.92,0.075,0.9957,0.08,-5.0,2021.0,7.0,9.0,12.0,21.0,47.0,7/9/2021,12:21:47 PM,7/09/2021 12:21:47,6.554,194.69,60.4961,47.0,2371.0,2719.0,3216.0,0.0,23227.0,30090.0,0.0,0.87,5.59,12:21:47 PM,51.17138922,2.62909067,0.9,RTK       ,,,,,,,2021-07-09 12:21:47+00:00,,,,,,,,,2021-07-09 12:21:47,4.945999999999998,4.940334496714256,4.980665228323084,4.860334496714256,-0.08,104.82961749422975,208.20525146994302,104.5957503742896,1.6974242964231805,293.81677661826893,188.98715912403918,2.8028030974589964,0.7633472330206332,3.262448127040539,0.0367,24.4229,34.8534,1.1829999999999998,0.767546671821904,23.275449538529124,195.32275240216416,273.0,4.33,,,,,-3.963762795866964,1.9200092038342558
0.0,0.0,0.0,0.0,0.0,0.0,0.0069,0.239,0.7311,0.1847,0.0,0.0,0.0,0.0,0.0,0.0,0.0,0.0,0.0,0.0,0.0,0.0,0.0,0.0118,0.1333,0.8277,2.4493,3.6976,4.2301,5.4931,8.468,11.9931,10.7819,3.5667,0.2206,0.0024,53.037299999999995,1.0261,10.92,0.075,0.9963,0.06,-5.0,2021.0,7.0,9.0,12.0,21.0,48.0,7/9/2021,12:21:48 PM,7/09/2021 12:21:48,6.554,183.02,53.0373,47.0,2371.0,2722.0,3217.0,0.0,23223.0,30512.0,0.0,0.87,5.56,12:21:48 PM,51.17139165,2.62909517,0.8,RTK       ,,,,,,,2021-07-09 12:21:48+00:00,,,,,,,,,2021-07-09 12:21:48,4.8859999999999975,4.940012351502974,4.980799103063233,4.880012351502974,-0.06,104.27714591132575,195.12364149345612,91.68145761740325,1.6403820550735373,266.50800916957564,162.23086325824988,2.5557662404397443,0.7140318665307399,3.7534242251947076,0.0,25.3109,26.564700000000002,1.1617,0.7807778695724913,23.14534102588317,183.37864489888634,230.0,5.11,,,,,-4.016999766166537,1.8809068743866983
0.0,0.0,0.0,0.0,0.0,0.0,0.0,0.0263,0.518,0.4888,0.0,0.0,0.0,0.0,0.0,0.0,0.0,0.0,0.0,0.0,0.0,0.0,0.0,0.0113,0.1309,0.8181,2.4125,3.6279,4.1992,5.6083,8.7851,11.9522,9.2244,2.1825,0.0743,0.0,50.059799999999996,1.022,10.92,0.075,0.9974,0.07,-5.0,2021.0,7.0,9.0,12.0,21.0,49.0,7/9/2021,12:21:49 PM,7/09/2021 12:21:49,6.554,179.83,50.06,47.0,2372.0,2719.0,3216.0,0.0,23225.0,32858.0,0.0,0.866,5.767,12:21:49 PM,51.1713941,2.62910033,1.0,RTK       ,,,,,,,2021-07-09 12:21:49+00:00,,,,,,,,,2021-07-09 12:21:49,5.115999999999997,4.939701795101331,4.9809329778033815,4.869701795101331,-0.07,103.77735164060049,189.16906296209442,85.57823046342838,1.6062446803955273,259.40514260090123,155.62779096030073,2.499631552549805,0.6836916763580638,3.4930379626216634,0.0,25.5933,23.4334,1.0331000000000001,0.7890311497165521,23.776159127924906,180.10473998606943,230.0,5.11,,,,,-4.044049634310048,1.8233249595707832
0.0,0.0,0.0,0.0,0.0,0.0,0.0,0.0,0.0485,0.0416,0.0,0.0,0.0,0.0,0.0,0.0,0.0,0.0,0.0,0.0,0.0,0.0,0.0,0.0,0.0323,0.6256,2.8668,3.7686,3.4086,4.6641,9.0842,13.7332,7.0011,0.3768,0.0,0.0,45.6514,1.0261,10.92,0.075,0.9968,0.08,-5.0,2021.0,7.0,9.0,12.0,21.0,50.0,7/9/2021,12:21:50 PM,7/09/2021 12:21:50,6.554,187.63,45.6514,47.0,2369.0,2716.0,3219.0,0.0,23226.0,23600.0,0.0,0.87,5.584,12:21:50 PM,51.1713964,2.62910767,1.2,RTK       ,,,,,,,2021-07-09 12:21:50+00:00,,,,,,,,,2021-07-09 12:21:50,4.9959999999999996,4.9394197304225615,4.98106685254353,4.8594197304225615,-0.08,105.26465213866132,188.94744096168424,76.01509672592397,1.5312188209524802,246.39548479821704,141.13083265955572,2.340723878264939,0.614680467909364,2.785041590713183,0.0,24.4502,21.1111,0.0901,0.8081302631879375,23.002642037886798,187.81804656885342,230.0,119.0,5.11,,,,-2.5855777031414786,1.4136552705718484
0.0,0.0,0.0,0.0,0.0,0.0,0.019,0.3229,0.7529,0.1505,0.0,0.0,0.0,0.0,0.0,0.0,0.0,0.0,0.0,0.0,0.0,0.0,0.0,0.011,0.1298,0.826,2.4772,3.7457,4.2494,5.4627,8.4257,12.1114,11.1557,3.8226,0.2525,0.0031,53.9181,1.0199,10.91,0.075,0.9963,0.07,-5.0,2021.0,7.0,9.0,12.0,21.0,51.0,7/9/2021,12:21:51 PM,7/09/2021 12:21:51,6.554,182.96,53.9179,47.0,2371.0,2718.0,3217.0,0.0,23225.0,34991.0,0.0,0.865,5.801,12:21:51 PM,51.17139838,2.62911433,0.8,RTK       ,,,,,,,2021-07-09 12:21:51+00:00,,,,,,,,,2021-07-09 12:21:51,4.836000000000003,4.939155229298367,4.981200727283679,4.869155229298367,-0.07,104.15492442617503,196.0293101638749,92.89515762805743,1.6478564826713427,267.5455749526919,163.39065052651685,2.5687270806127662,0.7205905988594274,3.7052089811247657,0.0,25.3275,27.345299999999998,1.2453,0.7790051119259214,22.58658900581863,183.33139300791203,230.0,5.11,,,,,-3.9929909612078074,1.9103943121508014
0.0,0.0,0.0,0.0,0.0,0.0,0.0035,0.2172,0.7889,0.2109,0.0,0.0,0.0,0.0,0.0,0.0,0.0,0.0,0.0,0.0,0.0,0.0,0.0,0.0094,0.1187,0.7863,2.4025,3.6818,4.2567,5.5737,8.5838,12.0124,10.5447,3.3678,0.1951,0.0019,52.7553,1.024,10.92,0.075,0.9968,0.07,-5.0,2021.0,7.0,9.0,12.0,21.0,52.0,7/9/2021,12:21:52 PM,7/09/2021 12:21:52,6.554,181.83,52.7555,47.0,2376.0,2719.0,3213.0,0.0,23225.0,35976.0,0.0,0.868,5.664,12:21:52 PM,51.17139973,2.629119,0.7,RTK       ,,,,,,,2021-07-09 12:21:52+00:00,,,,,,,,,2021-07-09 12:21:52,4.860000000000001,4.938882591840834,4.981334602023828,4.868882591840833,-0.07,104.37601998106614,194.031839397868,90.49438431581297,1.6329458386181255,265.51352020854273,161.1375002274766,2.543817250904058,0.7074769405304306,3.7932472196209015,0.0,25.4129,26.1219,1.2205000000000001,0.7825536291041543,22.663198985555287,182.16617280951567,230.0,5.11,,,,,-4.003656114605319,1.8985510956967584
0.0,0.0,0.0,0.0,0.0,0.0382,0.3207,0.5484,0.418,0.0416,0.0,0.0,0.0,0.0,0.0,0.0,0.0,0.0,0.0,0.0,0.0,0.0,0.0,0.0153,0.1627,0.9565,2.7031,3.9246,4.2691,5.1815,7.6816,11.5667,13.2183,7.3149,1.116,0.0474,59.5246,1.022,10.91,0.075,0.9968,0.07,-5.0,2021.0,7.0,9.0,12.0,21.0,53.0,7/9/2021,12:21:53 PM,7/09/2021 12:21:53,6.554,190.27,59.5246,47.0,2370.0,2717.0,3220.0,0.0,23224.0,35526.0,0.0,0.866,5.744,12:21:53 PM,51.1714014,2.6291245,1.0,RTK       ,,,,,,,2021-07-09 12:21:53+00:00,,,,,,,,,2021-07-09 12:21:53,5.020000000000005,4.9386049916279235,4.981468476763976,4.868604991627923,-0.07,104.20671918109713,204.9909378265291,104.50995642618659,1.7122090783905135,289.6322567411542,185.42553756005708,2.779400973538114,0.7758588804422994,3.437025069051267,0.0382,24.8944,33.2633,1.3287,0.7642256364542667,22.164507668532245,190.8469353677121,273.0,4.33,,,,,-3.9287625494449814,1.9736481170908122
0.0,0.0,0.0,0.0,0.0,0.0173,0.2374,0.6952,0.4314,0.0359,0.0,0.0,0.0,0.0,0.0,0.0,0.0,0.0,0.0,0.0,0.0,0.0,0.0,0.0126,0.1435,0.8982,2.673,3.9852,4.3247,5.1595,7.5083,11.3085,13.4865,8.3748,1.5817,0.0916,60.9653,1.0227,10.92,0.075,0.9968,0.07,-5.0,2021.0,7.0,9.0,12.0,21.0,54.0,7/9/2021,12:21:54 PM,7/09/2021 12:21:54,6.554,192.88,60.9654,47.0,2366.0,2712.0,3224.0,0.0,23225.0,34016.0,0.0,0.867,5.717,12:21:54 PM,51.17140348,2.62913133,1.1,RTK       ,,,,,,,2021-07-09 12:21:54+00:00,,,,,,,,,2021-07-09 12:21:54,5.01,4.938342981493867,4.981602351504126,4.868342981493867,-0.07,105.03560807031837,207.81593074749634,107.36666460095552,1.724483076672889,295.97788336340335,190.94227529308498,2.8178813718606217,0.7861639708863872,3.3421396187157537,0.0173,24.705000000000002,34.8431,1.3999000000000001,0.7615010940539778,21.744408824319223,193.5192510434917,273.0,4.33,,,,,-3.8833164895875716,1.9834729074304045
0.0,0.0,0.0,0.0,0.0,0.0032,0.0733,0.5678,0.6498,0.0783,0.0,0.0,0.0,0.0,0.0,0.0,0.0,0.0,0.0,0.0,0.0,0.0,0.0,0.0109,0.1293,0.831,2.5247,3.8557,4.3307,5.3521,7.9178,11.5794,12.3324,5.9586,0.7113,0.0205,56.92679999999999,1.0247,10.91,0.075,0.9974,0.07,-5.0,2021.0,7.0,9.0,12.0,21.0,55.0,7/9/2021,12:21:55 PM,7/09/2021 12:21:55,6.554,186.99,56.9269,47.0,2373.0,2712.0,3216.0,0.0,23225.0,33570.0,0.0,0.868,5.661,12:21:55 PM,51.17140482,2.62913833,0.9,RTK       ,,,,,,,2021-07-09 12:21:55+00:00,,,,,,,,,2021-07-09 12:21:55,4.890000000000002,4.938097502993083,4.981736226244275,4.868097502993082,-0.07,104.60440737098922,201.03740749368154,100.68498219577984,1.6936565979659404,280.9424593775061,176.33805200651688,2.685761206801905,0.760141386692692,3.536239183953459,0.0032,24.9522,30.6022,1.3692,0.7683999374378367,21.693312333642023,187.480398183467,273.0,5.11,,,,,-3.9086912659968873,1.9626640645792286
0.0,0.0,0.0,0.0,0.0,0.0037,0.0851,0.6309,0.6125,0.0644,0.0,0.0,0.0,0.0,0.0,0.0,0.0,0.0,0.0,0.0,0.0,0.0,0.0,0.0113,0.1323,0.8511,2.5792,3.8956,4.2963,5.2228,7.7128,11.5522,12.9774,6.8178,0.9336,0.0333,58.412299999999995,1.024,10.91,0.075,0.9968,0.07,-5.0,2021.0,7.0,9.0,12.0,21.0,56.0,7/9/2021,12:21:56 PM,7/09/2021 12:21:56,6.554,189.27,58.4123,47.0,2378.0,2719.0,3210.0,0.0,23225.0,33196.0,0.0,0.868,5.664,12:21:56 PM,51.17140578,2.629144,0.7,RTK       ,,,,,,,2021-07-09 12:21:56+00:00,,,,,,,,,2021-07-09 12:21:56,4.924000000000003,4.9378550755022035,4.981870100984423,4.867855075502203,-0.07,104.77108749558867,203.85617129759552,102.99962338896432,1.7031120539287168,286.65924442339093,181.88815692780224,2.7360529634233353,0.7681733582866066,3.485179705690858,0.0037,24.7014,32.314299999999996,1.3929,0.7662639405076213,21.625483350670756,189.81299591823725,273.0,4.33,,,,,-3.8942791489603805,1.969311947301926
0.0,0.0,0.0,0.0,0.0,0.0,0.0,0.0942,0.7825,0.3511,0.0,0.0,0.0,0.0,0.0,0.0,0.0,0.0,0.0,0.0,0.0,0.0,0.0,0.0067,0.096,0.7044,2.3152,3.7047,4.3514,5.6727,8.6468,11.8092,9.6568,2.6347,0.1168,0.0,50.9432,1.0247,10.92,0.075,0.9968,0.05,-5.0,2021.0,7.0,9.0,12.0,21.0,57.0,7/9/2021,12:21:57 PM,7/09/2021 12:21:57,6.554,179.13,50.9432,47.0,2371.0,2719.0,3218.0,0.0,23221.0,34425.0,0.0,0.869,5.637,12:21:57 PM,51.17140703,2.6291495,0.9,RTK       ,,,,,,,2021-07-09 12:21:57+00:00,,,,,,,,,2021-07-09 12:21:57,5.0240000000000045,4.937618619446973,4.982003975724572,4.8876186194469735,-0.05,104.38294646524741,190.33213973687796,87.60653893082304,1.619815604924797,261.88109175267203,157.49814528742462,2.5088493917908425,0.6958295902692897,3.4513232707103914,0.0,25.4979,24.2175,1.2278,0.7857189194734066,22.312002391279755,179.422437564677,230.0,5.11,,,,,-3.9921616528255486,1.8977666096160868
0.0,0.0,0.0,0.0,0.0,0.0,0.0031,0.2306,0.8647,0.2184,0.0,0.0,0.0,0.0,0.0,0.0,0.0,0.0,0.0,0.0,0.0,0.0,0.0,0.0069,0.0972,0.7102,2.3446,3.7605,4.3712,5.5857,8.4253,11.8439,10.5275,3.3613,0.1941,0.0019,52.5471,1.022,10.91,0.075,0.9963,0.07,-5.0,2021.0,7.0,9.0,12.0,21.0,58.0,7/9/2021,12:21:58 PM,7/09/2021 12:21:58,6.554,180.6,52.547,47.0,2366.0,2713.0,3226.0,0.0,23225.0,35124.0,0.0,0.867,5.72,12:21:58 PM,51.1714083,2.62915667,1.1,RTK       ,,,,,,,2021-07-09 12:21:58+00:00,,,,,,,,,2021-07-09 12:21:58,4.934000000000001,4.937396846228849,4.982137850464721,4.867396846228849,-0.07,104.49034882258218,193.67122131488824,91.38034382434029,1.6426316633208815,265.5590399537921,161.0686911312099,2.541469551457753,0.7160090128047023,3.798505422328976,0.0,25.3016,25.9287,1.3168,0.7802430430026622,21.780801392080328,180.93355995784904,230.0,5.11,,,,,-3.9564579309137033,1.933348524486644
0.0,0.0,0.0,0.0,0.0,0.0,0.0,0.0,0.1456,0.8353,0.0,0.0,0.0,0.0,0.0,0.0,0.0,0.0,0.0,0.0,0.0,0.0,0.0,0.0061,0.0862,0.6516,2.2131,3.5955,4.2972,5.8125,9.0057,11.4539,7.3763,1.2161,0.0222,0.0,46.717299999999994,1.024,10.91,0.075,0.9968,0.06,-5.0,2021.0,7.0,9.0,12.0,21.0,59.0,7/9/2021,12:21:59 PM,7/09/2021 12:21:59,6.554,176.18,46.7171,47.0,2371.0,2715.0,3221.0,0.0,23223.0,37008.0,0.0,0.868,5.664,12:21:59 PM,51.17140935,2.629164,0.9,RTK       ,,,,,,,2021-07-09 12:21:59+00:00,,,,,,,,,2021-07-09 12:21:59,4.834,4.937178506279338,4.982271725204869,4.877178506279338,-0.06,104.43793770972243,183.45471989862182,80.86057336556479,1.5808894077095887,252.0667957180338,147.62885800831137,2.41355585188435,0.6607364464252155,3.565266862011944,0.0,25.6679,20.0685,0.9809,0.7953334625956634,24.067268718900387,176.38398390367246,230.0,6.03,,,,,-4.094070519342399,1.7965312168287724
0.0,0.0,0.0,0.0,0.0,0.0,0.0,0.0061,0.4099,0.8049,0.0,0.0,0.0,0.0,0.0,0.0,0.0,0.0,0.0,0.0,0.0,0.0,0.0,0.005,0.078,0.6188,2.175,3.6591,4.4165,5.82,8.8229,11.453,7.9219,1.5144,0.0362,0.0,47.7417,1.0254,10.92,0.075,0.9968,0.06,-5.0,2021.0,7.0,9.0,12.0,22.0,0.0,7/9/2021,12:22:00 PM,7/09/2021 12:22:00,6.554,174.53,47.7416,47.0,2377.0,2721.0,3212.0,0.0,23223.0,37153.0,0.0,0.869,5.611,12:22:00 PM,51.17141065,2.6291695,0.7,RTK       ,,,,,,,2021-07-09 12:22:00+00:00,,,,,,,,,2021-07-09 12:22:00,4.886000000000005,4.936949057981073,4.982405599945018,4.876949057981073,-0.06,104.10919425697224,184.4229699029006,83.19839823799441,1.599499000122569,254.6089837514793,150.49978949450704,2.445595565008688,0.6776200905975931,3.479932361985279,0.0,25.5953,20.9255,1.2208999999999999,0.7906932176108675,21.75808045779503,174.75344522554965,230.0,6.03,,,,,-3.9708267331199285,1.888034609716023
0.0,0.0,0.0,0.0,0.0,0.0,0.0,0.0011,0.2142,1.0401,0.0011,0.0,0.0,0.0,0.0,0.0,0.0,0.0,0.0,0.0,0.0,0.0,0.0,0.0038,0.0663,0.5706,2.0977,3.593,4.4141,5.954,9.0592,11.3394,7.2387,1.2073,0.0233,0.0,46.8239,1.024,10.91,0.075,0.9957,0.06,-5.0,2021.0,7.0,9.0,12.0,22.0,1.0,7/9/2021,12:22:01 PM,7/09/2021 12:22:01,6.554,172.74,46.8241,47.0,2378.0,2722.0,3209.0,0.0,23223.0,37168.0,0.0,0.869,5.617,12:22:01 PM,51.17141228,2.62917517,0.9,RTK       ,,,,,,,2021-07-09 12:22:01+00:00,,,,,,,,,2021-07-09 12:22:01,4.966000000000003,4.936713925888898,4.982539474685167,4.8767139258888985,-0.06,104.21969176048646,182.46432225056694,80.93141597972397,1.5844165648201,251.57544169188077,147.3557499313943,2.4138954687185357,0.663951689578401,2.8807154968422544,0.0,25.7587,19.808699999999998,1.2565000000000002,0.794447701514981,21.316955657078204,172.9391585739034,230.0,6.03,,,,,-3.9558885322236725,1.8943053746382037
0.0,0.0,0.0,0.0,0.0,0.0,0.0,0.0,0.1803,1.0694,0.0012,0.0,0.0,0.0,0.0,0.0,0.0,0.0,0.0,0.0,0.0,0.0,0.0,0.0044,0.0738,0.6067,2.1402,3.5909,4.388,5.9122,8.974,11.2477,7.2205,1.1996,0.0227,0.0,46.6316,1.0254,10.92,0.075,0.9957,0.06,-5.0,2021.0,7.0,9.0,12.0,22.0,2.0,7/9/2021,12:22:02 PM,7/09/2021 12:22:02,6.554,172.48,46.6316,47.0,2368.0,2719.0,3223.0,0.0,23223.0,37184.0,0.0,0.87,5.563,12:22:02 PM,51.17141363,2.629182,1.0,RTK       ,,,,,,,2021-07-09 12:22:02+00:00,,,,,,,,,2021-07-09 12:22:02,4.946,4.9364850054372384,4.982673349425316,4.876485005437239,-0.06,103.74512695077226,182.27442059872803,81.44248122806684,1.5903488400757204,251.5888859177057,147.84375896693345,2.4250670206137612,0.6693432527093881,2.903501471860639,0.0,25.6902,19.6905,1.2509,0.7929646037490091,21.1656757319259,172.67035232986268,230.0,6.03,,,,,-3.934564344634253,1.8940931476438148
0.0,0.0,0.0,0.0,0.0,0.0,0.0,0.0,0.1934,1.091,0.0012,0.0,0.0,0.0,0.0,0.0,0.0,0.0,0.0,0.0,0.0,0.0,0.0,0.0042,0.0704,0.5782,2.0705,3.5585,4.4436,6.039,9.1649,11.4009,7.2036,1.175,0.0219,0.0,47.0163,1.0206,10.92,0.075,0.9951,0.05,-5.0,2021.0,7.0,9.0,12.0,22.0,3.0,7/9/2021,12:22:03 PM,7/09/2021 12:22:03,6.554,172.41,47.0163,46.0,2366.0,2714.0,3229.0,0.0,23221.0,37177.0,0.0,0.867,5.727,12:22:03 PM,51.1714147,2.62918867,0.8,RTK       ,,,,,,,2021-07-09 12:22:03+00:00,,,,,,,,,2021-07-09 12:22:03,4.925999999999997,4.936263436145334,4.982807224165465,4.8862634361453345,-0.05,104.27658383443774,182.26003317748308,80.40780987387498,1.5797638500471587,251.15872285754645,146.88213902310872,2.4085821919168042,0.6597089142070063,2.9059453825943997,0.0,25.929299999999998,19.8014,1.2856,0.7956167436306112,21.11828398134928,172.5969734944908,230.0,6.03,,,,,-3.9465359912808804,1.9007470822371477
0.0,0.0,0.0,0.0,0.0,0.0,0.0,0.0,0.1946,1.0982,0.0013,0.0,0.0,0.0,0.0,0.0,0.0,0.0,0.0,0.0,0.0,0.0,0.0,0.0037,0.0636,0.5538,2.0829,3.6363,4.4652,5.9403,8.9573,11.2549,7.2499,1.2146,0.0233,0.0,46.73989999999999,1.0247,10.91,0.075,0.9968,0.05,-5.0,2021.0,7.0,9.0,12.0,22.0,4.0,7/9/2021,12:22:04 PM,7/09/2021 12:22:04,6.554,172.18,46.7397,47.0,2374.0,2716.0,3219.0,0.0,23222.0,37173.0,0.0,0.869,5.637,12:22:04 PM,51.17141498,2.6291945,0.8,RTK       ,,,,,,,2021-07-09 12:22:04+00:00,,,,,,,,,2021-07-09 12:22:04,4.849,4.936040752733838,4.982941098905614,4.886040752733838,-0.05,104.12626429530633,182.2448601001161,81.56021332826916,1.5914312431341984,251.700610791616,147.57434649630966,2.41726343007738,0.6703248275160121,2.907391963359963,0.0,25.7031,19.7427,1.2941,0.7926948926606577,20.872543795056117,172.37321417402575,230.0,6.03,,,,,-3.9215763234866374,1.907681121133459
0.0,0.0,0.0,0.0,0.0,0.0,0.0,0.0011,0.2136,1.0767,0.0012,0.0,0.0,0.0,0.0,0.0,0.0,0.0,0.0,0.0,0.0,0.0,0.0,0.0042,0.0708,0.5855,2.0979,3.586,4.4192,5.9329,8.9825,11.3111,7.3978,1.2923,0.027,0.0,46.99979999999999,1.0247,10.9,0.075,0.9957,0.05,-5.0,2021.0,7.0,9.0,12.0,22.0,5.0,7/9/2021,12:22:05 PM,7/09/2021 12:22:05,6.554,172.66,46.9997,47.0,2379.0,2724.0,3208.0,0.0,23222.0,37174.0,0.0,0.87,5.59,12:22:05 PM,51.17141513,2.6292005,0.8,RTK       ,,,,,,,2021-07-09 12:22:05+00:00,,,,,,,,,2021-07-09 12:22:05,4.844000000000001,4.9358061139136495,4.9830749736457625,4.88580611391365,-0.05,104.0426719709972,182.80752602891044,81.60946292612425,1.5895270587261354,252.43355965719203,148.39088768619484,2.426250257467052,0.6685975758705012,2.8852909936070823,0.0,25.679000000000002,20.0282,1.2926000000000002,0.7931695575797506,20.907768919449666,172.85887440735144,230.0,6.03,,,,,-3.9210685805559002,1.9072226175010443
0.0,0.0,0.0,0.0,0.0,0.0,0.0,0.0013,0.2191,1.09,0.0015,0.0,0.0,0.0,0.0,0.0,0.0,0.0,0.0,0.0,0.0,0.0,0.0,0.0042,0.0704,0.588,2.138,3.6662,4.4706,5.901,8.868,11.3053,7.7104,1.4666,0.0351,0.0,47.5357,1.0227,10.91,0.075,0.9957,0.07,-5.0,2021.0,7.0,9.0,12.0,22.0,6.0,7/9/2021,12:22:06 PM,7/09/2021 12:22:06,6.554,173.07,47.5357,47.0,2373.0,2720.0,3217.0,0.0,23224.0,37171.0,0.0,0.868,5.67,12:22:06 PM,51.17141605,2.62920633,0.8,RTK       ,,,,,,,2021-07-09 12:22:06+00:00,,,,,,,,,2021-07-09 12:22:06,4.839000000000002,4.935554227028244,4.983208848385911,4.865554227028244,-0.07,103.93835674369573,183.41806540388552,83.04682404705778,1.6011231745473884,253.96255083502066,150.02419409132494,2.443395862619547,0.6790842987805537,2.8883189855833047,0.0,25.706400000000002,20.517400000000002,1.3119,0.7902920774719407,20.70963265082203,173.27924085539195,230.0,6.03,,,,,-3.8945272572131473,1.9122884949089116
0.0,0.0,0.0,0.0,0.0,0.0,0.0,0.0,0.171,1.1009,0.0019,0.0,0.0,0.0,0.0,0.0,0.0,0.0,0.0,0.0,0.0,0.0,0.0,0.0049,0.077,0.6159,2.1696,3.6639,4.4739,5.9224,8.8536,11.2476,7.6403,1.4166,0.0319,0.0,47.3914,1.0234,10.89,0.075,0.9963,0.06,-5.0,2021.0,7.0,9.0,12.0,22.0,7.0,7/9/2021,12:22:07 PM,7/09/2021 12:22:07,6.554,173.1,47.3914,47.0,2367.0,2716.0,3228.0,0.0,23223.0,37177.0,0.0,0.868,5.667,12:22:07 PM,51.17141665,2.629212,0.7,RTK       ,,,,,,,2021-07-09 12:22:07+00:00,,,,,,,,,2021-07-09 12:22:07,4.873999999999999,4.935286752599043,4.98334272312606,4.8752867525990435,-0.06,103.73975663296227,183.02351318025464,83.04796743578984,1.6025635739465753,253.573541646285,149.83378501332274,2.4443236602476714,0.680381589916216,2.9329402014070256,0.0,25.7812,20.3364,1.2738,0.7899368366085013,20.946753169172137,173.30991278285032,230.0,6.03,,,,,-3.9038030079116752,1.8985912965046636
0.0,0.0,0.0,0.0,0.0,0.0,0.0,0.0011,0.1908,1.0894,0.0024,0.0,0.0,0.0,0.0,0.0,0.0,0.0,0.0,0.0,0.0,0.0,0.0,0.0058,0.0863,0.652,2.2002,3.6384,4.4194,5.8761,8.8806,11.4588,8.0248,1.6091,0.0431,0.0,48.1783,1.0247,10.92,0.075,0.9957,0.05,-5.0,2021.0,7.0,9.0,12.0,22.0,8.0,7/9/2021,12:22:08 PM,7/09/2021 12:22:08,6.554,174.18,48.1784,47.0,2371.0,2720.0,3220.0,0.0,23222.0,37173.0,0.0,0.87,5.59,12:22:08 PM,51.17141717,2.629217,0.6,RTK       ,,,,,,,2021-07-09 12:22:08+00:00,,,,,,,,,2021-07-09 12:22:08,4.882999999999999,4.935008612804057,4.9834765978662094,4.885008612804057,-0.05,103.72129477101426,184.4620442119632,83.52382045589607,1.6019145705887128,255.15233014522875,151.4310353742145,2.45998018737164,0.6797972114954689,2.9365149955517382,0.0,25.7588,21.1358,1.2836999999999998,0.7900968388187134,20.951796093847637,174.40159644134576,230.0,6.03,,,,,-3.8978003682860303,1.899179884408048
0.0,0.0,0.0,0.0,0.0,0.0,0.0,0.0,0.1362,1.088,0.0029,0.0,0.0,0.0,0.0,0.0,0.0,0.0,0.0,0.0,0.0,0.0,0.0,0.0061,0.0892,0.6713,2.2497,3.6453,4.3532,5.8073,8.8467,11.3425,7.6696,1.4291,0.0337,0.0,47.3708,1.0261,10.92,0.075,0.9945,0.05,-5.0,2021.0,7.0,9.0,12.0,22.0,9.0,7/9/2021,12:22:09 PM,7/09/2021 12:22:09,6.554,173.66,47.3708,47.0,2377.0,2719.0,3212.0,0.0,23222.0,37177.0,0.0,0.872,5.49,12:22:09 PM,51.17141832,2.629221,0.6,RTK       ,,,,,,,2021-07-09 12:22:09+00:00,,,,,,,,,2021-07-09 12:22:09,4.873000000000001,4.9347227330946195,4.983610472606358,4.88472273309462,-0.05,103.26838778285186,183.52942634906503,83.17504811634205,1.6030280265549242,253.7378094810995,150.46942169824763,2.457071471035725,0.6807996490846868,2.987924232022537,0.0,25.6688,20.474899999999998,1.2271,0.7898223923202498,21.221170462349804,173.8789048769657,230.0,6.03,,,,,-3.909985152322246,1.8833549500770677
0.0,0.0,0.0,0.0,0.0,0.0,0.0,0.0,0.1136,1.09,0.0041,0.0,0.0,0.0,0.0,0.0,0.0,0.0,0.0,0.0,0.0,0.0,0.0,0.0073,0.097,0.6874,2.2368,3.6119,4.3455,5.8282,8.8946,11.3808,7.7063,1.4402,0.0342,0.0,47.4779,1.0254,10.92,0.075,0.9951,0.05,-5.0,2021.0,7.0,9.0,12.0,22.0,10.0,7/9/2021,12:22:10 PM,7/09/2021 12:22:10,6.554,174.07,47.4778,47.0,2377.0,2720.0,3214.0,0.0,23221.0,37184.0,0.0,0.871,5.54,12:22:10 PM,51.1714196,2.62922517,0.6,RTK       ,,,,,,,2021-07-09 12:22:10+00:00,,,,,,,,,2021-07-09 12:22:10,4.793000000000003,4.934423801712164,4.983744347346507,4.884423801712164,-0.05,103.37363205108421,183.7033495944893,82.88929213541945,1.5992871181974675,253.83126710572267,150.45763505463844,2.455474012756819,0.6774289674704206,3.0347338421492016,0.0,25.7087,20.5615,1.2077,0.7907455934634088,21.419400595988726,174.28177037189127,230.0,6.03,,,,,-3.9216204438739424,1.8749741012075962
0.0,0.0,0.0,0.0,0.0,0.0,0.0,0.0,0.0895,1.0814,0.0057,0.0,0.0,0.0,0.0,0.0,0.0,0.0,0.0,0.0,0.0,0.0,0.0,0.008,0.1047,0.7273,2.3112,3.6664,4.3768,5.8403,8.8433,11.3081,7.7867,1.5121,0.0376,0.0,47.699099999999994,1.0213,10.91,0.075,0.9951,0.05,-5.0,2021.0,7.0,9.0,12.0,22.0,11.0,7/9/2021,12:22:11 PM,7/09/2021 12:22:11,6.554,174.29,47.6992,46.0,2369.0,2725.0,3223.0,0.0,23222.0,37186.0,0.0,0.867,5.7,12:22:11 PM,51.17142053,2.629229,0.5,RTK       ,,,,,,,2021-07-09 12:22:11+00:00,,,,,,,,,2021-07-09 12:22:11,4.763000000000002,4.934099977106204,4.9838782220866555,4.884099977106204,-0.05,103.01727457822814,183.54404406361365,83.77193170348252,1.60836805289696,254.31966199316858,151.30238741494043,2.4687088940607342,0.6855975852046123,3.0687890429616425,0.0,25.878,20.6445,1.1765999999999999,0.788510137011227,21.567451610018047,174.50602543743668,230.0,6.03,,,,,-3.9124577154133795,1.8633809307540496
0.0,0.0,0.0,0.0,0.0,0.0,0.0,0.0,0.0244,1.0373,0.0173,0.0,0.0,0.0,0.0,0.0,0.0,0.0,0.0,0.0,0.0,0.0,0.0,0.0091,0.1121,0.7508,2.3434,3.6748,4.3482,5.8018,8.8627,11.2745,7.3185,1.2423,0.025,0.0,46.8422,1.024,10.91,0.075,0.9939,0.05,-5.0,2021.0,7.0,9.0,12.0,22.0,12.0,7/9/2021,12:22:12 PM,7/09/2021 12:22:12,6.554,173.97,46.8422,47.0,2369.0,2718.0,3226.0,0.0,23222.0,37193.0,0.0,0.871,5.546,12:22:12 PM,51.17142103,2.6292315,0.3,RTK       ,,,,,,,2021-07-09 12:22:12+00:00,,,,,,,,,2021-07-09 12:22:12,4.9300000000000015,4.933753532356234,4.984012096826804,4.883753532356234,-0.05,102.77250213872628,182.34155726229602,82.85379213980957,1.6053895169708887,252.00544540579105,149.23294326706477,2.4520707403389324,0.682923382097127,3.247096798270262,0.0,25.902900000000002,19.8603,1.0790000000000002,0.7892412734092508,22.32393454814894,174.17342291666802,230.0,6.03,,,,,-3.953016818817453,1.8299804503071206
0.0,0.0,0.0,0.0,0.0,0.0,0.0,0.0,0.0053,0.9323,0.0551,0.0,0.0,0.0,0.0,0.0,0.0,0.0,0.0,0.0,0.0,0.0,0.0,0.0113,0.1231,0.7762,2.3652,3.6798,4.3805,5.91,8.9706,10.9764,6.5513,0.9589,0.015,0.0,45.711,1.0261,10.91,0.075,0.9957,0.05,-5.0,2021.0,7.0,9.0,12.0,22.0,13.0,7/9/2021,12:22:13 PM,7/09/2021 12:22:13,6.554,172.64,45.711,47.0,2377.0,2717.0,3215.0,0.0,23222.0,37213.0,0.0,0.871,5.537,12:22:13 PM,51.17142115,2.62923417,0.4,RTK       ,,,,,,,2021-07-09 12:22:13+00:00,,,,,,,,,2021-07-09 12:22:13,5.000000000000002,4.933407865267254,4.984145971566953,4.883407865267254,-0.05,102.37135419851607,179.81337353747784,81.49200728658491,1.6018734734105635,248.48023117623532,146.10887697771926,2.427243764836679,0.6797601986255168,3.437599796404635,0.0,26.2167,18.5016,0.9927,0.790106973995685,23.01787808600326,172.82013758598913,230.0,6.03,,,,,-3.988547836726264,1.8004158835704567
0.0,0.0,0.0,0.0,0.0,0.0,0.0,0.0,0.0062,0.9537,0.0613,0.0,0.0,0.0,0.0,0.0,0.0,0.0,0.0,0.0,0.0,0.0,0.0,0.0116,0.1263,0.7864,2.3716,3.6905,4.4011,5.9129,8.9392,11.0913,7.0091,1.1377,0.0207,0.0,46.5196,1.024,10.91,0.075,0.9963,0.04,-5.0,2021.0,7.0,9.0,12.0,22.0,14.0,7/9/2021,12:22:14 PM,7/09/2021 12:22:14,6.554,173.51,46.5196,47.0,2376.0,2725.0,3211.0,0.0,23220.0,37213.0,0.0,0.868,5.64,12:22:14 PM,51.17142127,2.62923783,0.5,RTK       ,,,,,,,2021-07-09 12:22:14+00:00,,,,,,,,,2021-07-09 12:22:14,4.9,4.933075671384763,4.984279846307102,4.893075671384763,-0.04,102.51421144519925,180.95160588348986,82.41641787347979,1.6058643889006432,250.646677703916,148.13246625871676,2.4449944468226588,0.6833500661297132,3.4202382913425056,0.0,26.2396,19.2588,1.0211999999999999,0.7891245710773116,22.7543599377008,173.70784103357855,230.0,6.03,,,,,-3.963929315270496,1.8078257259856378
0.0,0.0,0.0,0.0,0.0,0.0,0.0,0.0,0.0293,1.1183,0.019,0.0,0.0,0.0,0.0,0.0,0.0,0.0,0.0,0.0,0.0,0.0,0.0,0.007,0.0944,0.6811,2.2616,3.717,4.5052,6.0034,8.9416,11.0315,7.0869,1.2315,0.0261,0.0,46.7539,1.0254,10.92,0.075,0.9963,0.06,-5.0,2021.0,7.0,9.0,12.0,22.0,15.0,7/9/2021,12:22:15 PM,7/09/2021 12:22:15,6.554,172.45,46.754,47.0,2369.0,2718.0,3225.0,0.0,23223.0,37200.0,0.0,0.87,5.587,12:22:15 PM,51.17142108,2.62924117,0.3,RTK       ,,,,,,,2021-07-09 12:22:15+00:00,,,,,,,,,2021-07-09 12:22:15,4.799999999999999,4.9327427043516705,4.98441372104725,4.872742704351671,-0.06,103.0922024097319,180.95540645242218,82.48343635335723,1.6052033226180127,251.34200084242963,148.24979843269773,2.438031150440365,0.6827560474749821,3.258214088126267,0.0,26.2113,19.375999999999998,1.1666,0.7892870458060984,21.601811467807575,172.64239591410646,230.0,6.03,,,,,-3.9251388035607526,1.8587715509139986
0.0,0.0,0.0,0.0,0.0,0.0,0.0,0.0023,0.3406,1.4693,0.0022,0.0,0.0,0.0,0.0,0.0,0.0,0.0,0.0,0.0,0.0,0.0,0.0,0.0023,0.0487,0.4778,1.9287,3.5612,4.552,6.108,9.1021,11.2816,7.2856,1.2695,0.0269,0.0,47.458800000000004,1.022,10.9,0.075,0.9951,0.06,-5.0,2021.0,7.0,9.0,12.0,22.0,16.0,7/9/2021,12:22:16 PM,7/09/2021 12:22:16,6.554,166.69,47.4588,47.0,2368.0,2717.0,3229.0,0.0,23223.0,37176.0,0.0,0.868,5.673,12:22:16 PM,51.17142078,2.62924233,0.1,RTK       ,,,,,,,2021-07-09 12:22:16+00:00,,,,,,,,,2021-07-09 12:22:16,4.873000000000003,4.932395214003307,4.9845475957874,4.8723952140033076,-0.06,103.22887279199594,181.6440773966652,81.79032744599107,1.5951726663675883,251.72151362912726,148.49264083713132,2.4384797278213135,0.6737125941655822,2.9827841411813556,0.0,25.7808,19.863599999999998,1.8144,0.7917647274681032,16.962739149642353,166.88036161498343,230.0,6.03,,,,,-3.622318393823934,2.0784656663379755
0.0,0.0,0.0,0.0,0.0,0.0013,0.2258,1.3747,0.4197,0.0148,0.0,0.0,0.0,0.0,0.0,0.0,0.0,0.0,0.0,0.0,0.0,0.0,0.0,0.0075,0.1096,0.7985,2.5952,4.0914,4.5097,5.1722,7.0774,10.42,13.3189,10.2073,2.8621,0.302,63.50809999999999,1.0254,10.91,0.075,0.9957,0.05,-5.0,2021.0,7.0,9.0,12.0,22.0,17.0,7/9/2021,12:22:17 PM,7/09/2021 12:22:17,6.554,191.23,63.5082,47.0,2377.0,2721.0,3210.0,0.0,23221.0,36393.0,0.0,0.87,5.563,12:22:17 PM,51.17142045,2.62924267,0.1,RTK       ,,,,,,,2021-07-09 12:22:17+00:00,,,,,,,,,2021-07-09 12:22:17,4.938000000000002,4.9320403758916,4.984681470527549,4.8820403758916004,-0.05,104.30685424355374,212.26944019149417,116.43429379602617,1.7872305306405616,307.1304686544446,202.82361441089085,2.9444898025330444,0.8377257362044095,3.2369760860585424,0.0013,24.3615,37.1103,2.035,0.7480139764667149,17.756732173307466,192.00085668884432,273.0,4.33,,,,,-3.5893361621300217,2.181728142876766
0.0,0.0,0.0,0.0,0.003,0.0646,0.3744,0.7972,0.2661,0.0123,0.0,0.0,0.0,0.0,0.0,0.0,0.0,0.0,0.0,0.0,0.0,0.0,0.0,0.0145,0.1646,0.9919,2.8299,4.1097,4.3403,4.9333,6.8139,10.2201,13.4234,10.7317,3.2415,0.3831,63.715500000000006,1.0295,10.9,0.075,0.9957,0.05,-5.0,2021.0,7.0,9.0,12.0,22.0,18.0,7/9/2021,12:22:18 PM,7/09/2021 12:22:18,6.554,197.93,63.7155,47.0,2378.0,2721.0,3211.0,0.0,23221.0,31171.0,0.0,0.874,5.404,12:22:18 PM,51.1714207,2.62924317,0.1,RTK       ,,,,,,,2021-07-09 12:22:18+00:00,,,,,,,,,2021-07-09 12:22:18,5.003000000000002,4.931694787688351,4.984815345267697,4.881694787688351,-0.05,104.49744250885105,215.33797526683426,118.12750723606914,1.7904381236419986,310.1027777614305,205.60533525257944,2.9675633232379295,0.8403126609330238,3.130820494293115,0.06760000000000001,24.1981,37.9998,1.4500000000000002,0.7473436377565934,20.66354946199026,198.78190354269177,273.0,4.33,,,,,-3.7548482600457467,2.039016975370335
0.0,0.0,0.0,0.0,0.001,0.0394,0.2949,0.8081,0.3399,0.0181,0.0,0.0,0.0,0.0,0.0,0.0,0.0,0.0,0.0,0.0,0.0,0.0,0.0,0.0139,0.1574,0.9506,2.731,4.0153,4.3363,5.0692,7.1509,10.654,13.2671,9.4126,2.3193,0.2039,61.78289999999999,1.0275,10.9,0.075,0.9963,0.05,-5.0,2021.0,7.0,9.0,12.0,22.0,19.0,7/9/2021,12:22:19 PM,7/09/2021 12:22:19,6.554,194.33,61.7828,47.0,2370.0,2724.0,3226.0,0.0,23221.0,28441.0,0.0,0.871,5.507,12:22:19 PM,51.17142148,2.62924333,0.2,RTK       ,,,,,,,2021-07-09 12:22:19+00:00,,,,,,,,,2021-07-09 12:22:19,4.903000000000004,4.9313641260968195,4.984949220007846,4.88136412609682,-0.05,104.45705058857733,210.5951039954961,112.77609976518926,1.7613750198412936,303.1523481566907,198.6952975681134,2.9021721985116176,0.8167021105683283,3.2286590458947884,0.0404,24.424599999999998,35.856899999999996,1.4609999999999999,0.7534840849420283,20.81935564538972,195.06537821991614,273.0,4.33,,,,,-3.793968316883559,2.02700547019643
0.0,0.0,0.0,0.0,0.0,0.0278,0.2447,0.7985,0.3991,0.024,0.0,0.0,0.0,0.0,0.0,0.0,0.0,0.0,0.0,0.0,0.0,0.0,0.0,0.0114,0.1364,0.885,2.6902,4.0733,4.4338,5.1627,7.2311,10.7067,13.0973,8.8363,1.9471,0.1408,60.846199999999996,1.0261,10.9,0.075,0.9963,0.05,-5.0,2021.0,7.0,9.0,12.0,22.0,20.0,7/9/2021,12:22:20 PM,7/09/2021 12:22:20,6.554,192.57,60.8463,47.0,2368.0,2722.0,3225.0,0.0,23221.0,27204.0,0.0,0.87,5.56,12:22:20 PM,51.17142203,2.62924233,0.3,RTK       ,,,,,,,2021-07-09 12:22:20+00:00,,,,,,,,,2021-07-09 12:22:20,4.734999999999999,4.931029659004373,4.985083094747995,4.881029659004374,-0.05,104.59015328667552,208.38287615248868,111.31893014724125,1.7583744287173109,299.84813335399934,195.25798006732384,2.8668868333344255,0.8142423110591468,3.2866952249108166,0.0278,24.6239,34.7282,1.4663,0.7541267051687314,20.84050116808977,193.2517707184892,273.0,4.33,,,,,-3.8042326352337033,2.0205194213894777
0.0,0.0,0.0,0.0,0.0,0.022,0.2125,0.776,0.4397,0.0288,0.0,0.0,0.0,0.0,0.0,0.0,0.0,0.0,0.0,0.0,0.0,0.0,0.0,0.0124,0.1429,0.8916,2.6519,4.0073,4.419,5.2594,7.4905,11.0155,12.8836,7.9354,1.5171,0.0907,59.796299999999995,1.0247,10.91,0.075,0.9957,0.05,-5.0,2021.0,7.0,9.0,12.0,22.0,21.0,7/9/2021,12:22:21 PM,7/09/2021 12:22:21,6.554,190.33,59.7962,47.0,2376.0,2719.0,3216.0,0.0,23221.0,26240.0,0.0,0.87,5.59,12:22:21 PM,51.17142162,2.62924017,0.3,RTK       ,,,,,,,2021-07-09 12:22:21+00:00,,,,,,,,,2021-07-09 12:22:21,4.795000000000002,4.9306686133109565,4.985216969488143,4.880668613310957,-0.05,104.36937137129475,205.6370378568691,108.04879449473023,1.7400212618267425,294.8259601768861,190.45658880559137,2.824832192655839,0.7991049348927344,3.3420465550512493,0.022,24.875,33.442299999999996,1.457,0.7580934118543234,20.971486041563356,190.94580971637777,273.0,4.33,,,,,-3.8292843405509664,2.0122520422982983
0.0,0.0,0.0,0.0,0.0,0.0396,0.2885,0.7749,0.3617,0.021,0.0,0.0,0.0,0.0,0.0,0.0,0.0,0.0,0.0,0.0,0.0,0.0,0.0,0.0138,0.1526,0.9196,2.6761,4.0294,4.4485,5.2453,7.3564,10.7387,12.8607,8.5197,1.8793,0.1399,60.4657,1.0268,10.9,0.075,0.9957,0.05,-5.0,2021.0,7.0,9.0,12.0,22.0,22.0,7/9/2021,12:22:22 PM,7/09/2021 12:22:22,6.554,191.61,60.4657,47.0,2378.0,2720.0,3213.0,0.0,23221.0,25156.0,0.0,0.871,5.51,12:22:22 PM,51.1714209,2.62923817,0.3,RTK       ,,,,,,,2021-07-09 12:22:22+00:00,,,,,,,,,2021-07-09 12:22:22,4.895000000000003,4.930284833360285,4.985350844228292,4.880284833360285,-0.05,104.3375925090118,207.06562163968528,110.61013839494146,1.756393490649909,298.8020177720511,194.4644252630393,2.8638001949895777,0.8126160928311927,3.2714631044107882,0.0396,24.8417,34.1383,1.4461,0.7545518540114498,20.894507946702163,192.27254538708388,273.0,4.33,,,,,-3.8107075158419783,2.0226665598698714
0.0,0.0,0.0,0.0,0.0,0.0367,0.2723,0.7671,0.3762,0.0227,0.0,0.0,0.0,0.0,0.0,0.0,0.0,0.0,0.0,0.0,0.0,0.0,0.0,0.0127,0.1409,0.8741,2.6414,4.0553,4.4673,5.2194,7.2942,10.7189,12.8731,8.4806,1.8373,0.1321,60.2223,1.0275,10.9,0.075,0.9957,0.05,-5.0,2021.0,7.0,9.0,12.0,22.0,23.0,7/9/2021,12:22:23 PM,7/09/2021 12:22:23,6.554,191.76,60.2223,47.0,2371.0,2726.0,3222.0,0.0,23222.0,23943.0,0.0,0.872,5.484,12:22:23 PM,51.17142017,2.629237,0.3,RTK       ,,,,,,,2021-07-09 12:22:23+00:00,,,,,,,,,2021-07-09 12:22:23,4.895000000000003,4.929894773870701,4.985484718968442,4.879894773870701,-0.05,104.65126458692754,207.1696111933881,110.50622646997812,1.755563563859174,298.5369601760439,193.88569558911638,2.8526837334876842,0.8119342329627499,3.282666100089132,0.0367,24.7053,34.042,1.4383,0.7547301867186018,20.981943977273602,192.4268682332034,273.0,4.33,,,,,-3.8196831089378818,2.0186234133826244
0.0,0.0,0.0,0.0,0.0,0.0251,0.2277,0.7744,0.4161,0.0263,0.0,0.0,0.0,0.0,0.0,0.0,0.0,0.0,0.0,0.0,0.0,0.0,0.0,0.0118,0.1399,0.8908,2.6798,4.0447,4.4108,5.1875,7.3595,10.8614,12.9428,8.2721,1.6711,0.1077,60.0495,1.024,10.91,0.075,0.9951,0.05,-5.0,2021.0,7.0,9.0,12.0,22.0,24.0,7/9/2021,12:22:24 PM,7/09/2021 12:22:24,6.554,191.26,60.0494,47.0,2369.0,2717.0,3224.0,0.0,23221.0,22851.0,0.0,0.87,5.593,12:22:24 PM,51.17141907,2.6292355,0.4,RTK       ,,,,,,,2021-07-09 12:22:24+00:00,,,,,,,,,2021-07-09 12:22:24,4.789000000000005,4.9294983019475636,4.98561859370859,4.879498301947564,-0.05,104.38518537399248,206.6891775854301,109.45474285724544,1.7487396506649289,296.85451133882816,192.46932596483566,2.8438375644518357,0.8063155193036438,3.3165893763339973,0.0251,24.724800000000002,33.8551,1.4445000000000001,0.7562013030106888,20.98552814687381,191.90284686101478,273.0,4.33,,,,,-3.8213806543359747,2.0122839781850654
0.0,0.0,0.0,0.0,0.0057,0.1138,0.4652,0.6624,0.2201,0.0108,0.0,0.0,0.0,0.0,0.0,0.0,0.0,0.0,0.0,0.0,0.0,0.0,0.0,0.0155,0.1644,0.9723,2.7942,4.103,4.3708,5.0181,7.0046,10.4716,13.383,10.2372,2.9129,0.3176,63.243199999999995,1.0254,10.9,0.075,0.9957,0.03,-5.0,2021.0,7.0,9.0,12.0,22.0,25.0,7/9/2021,12:22:25 PM,7/09/2021 12:22:25,6.554,196.83,63.2431,47.0,2375.0,2717.0,3218.0,0.0,23219.0,22479.0,0.0,0.87,5.563,12:22:25 PM,51.17141762,2.62923233,0.6,RTK       ,,,,,,,2021-07-09 12:22:25+00:00,,,,,,,,,2021-07-09 12:22:25,4.789000000000005,4.92908272190783,4.985752468448739,4.8990827219078295,-0.03,104.69921809213226,213.33599394234065,115.88217341592159,1.7774849408233775,307.6561891114728,202.95697101934059,2.938476473059659,0.8298373371209409,3.235636050880682,0.1195,24.4429,37.3223,1.3585,0.7500617779272551,21.234069529275637,197.63255767285057,273.0,4.33,,,,,-3.814277440395895,2.030983664485727
0.0,0.0,0.0,0.0,0.0,0.0047,0.0883,0.6345,0.6369,0.0619,0.0,0.0,0.0,0.0,0.0,0.0,0.0,0.0,0.0,0.0,0.0,0.0,0.0,0.0103,0.1263,0.8243,2.5285,3.9301,4.4584,5.437,7.8342,11.2827,11.9862,5.8698,0.7362,0.0231,56.4734,1.022,10.91,0.075,0.9939,0.05,-5.0,2021.0,7.0,9.0,12.0,22.0,26.0,7/9/2021,12:22:26 PM,7/09/2021 12:22:26,6.554,185.31,56.4735,47.0,2373.0,2723.0,3218.0,0.0,23222.0,21223.0,0.0,0.869,5.626,12:22:26 PM,51.17141633,2.62922817,0.6,RTK       ,,,,,,,2021-07-09 12:22:26+00:00,,,,,,,,,2021-07-09 12:22:26,4.858999999999998,4.9286463587364695,4.985886343188888,4.87864635873647,-0.05,104.13122014958408,199.79791221524374,101.78829024059942,1.709389525033305,280.9335148613396,176.8022947117555,2.697879794914337,0.773481186832865,3.5198481291164234,0.0047,25.1491,29.898,1.4216,0.7648556529340678,21.095734432317897,185.7901887660416,273.0,5.11,,,,,-3.8649773303484456,1.9881818050268616
0.0,0.0,0.0,0.0,0.0,0.0,0.0175,0.399,0.8196,0.1261,0.0,0.0,0.0,0.0,0.0,0.0,0.0,0.0,0.0,0.0,0.0,0.0,0.0,0.0088,0.1153,0.7769,2.417,3.803,4.4359,5.6249,8.28,11.4462,10.4385,3.7466,0.2792,0.0041,52.738600000000005,1.0234,10.9,0.075,0.9963,0.04,-5.0,2021.0,7.0,9.0,12.0,22.0,27.0,7/9/2021,12:22:27 PM,7/09/2021 12:22:27,6.554,179.85,52.7385,47.0,2371.0,2723.0,3223.0,0.0,23220.0,21595.0,0.0,0.868,5.667,12:22:27 PM,51.17141527,2.62922433,0.5,RTK       ,,,,,,,2021-07-09 12:22:27+00:00,,,,,,,,,2021-07-09 12:22:27,4.858999999999998,4.928198316376738,4.9860202179290365,4.888198316376738,-0.04,103.61912178366508,193.21927943522812,93.80928645484744,1.6648889324350895,267.48055916035037,163.86143737668527,2.581382225172623,0.7354259358732285,3.6710622483038193,0.0,25.4618,25.9146,1.3622,0.7750101081182703,21.218627130686308,180.21135101033087,230.0,5.11,,,,,-3.90305087053232,1.9630938274834806
0.0,0.0,0.0,0.0,0.0,0.001,0.0361,0.5078,0.7419,0.0923,0.0,0.0,0.0,0.0,0.0,0.0,0.0,0.0,0.0,0.0,0.0,0.0,0.0,0.009,0.1177,0.7985,2.4899,3.8881,4.4626,5.5444,8.0439,11.306,11.1433,4.6855,0.4514,0.0095,54.328900000000004,1.0234,10.89,0.075,0.9945,0.05,-5.0,2021.0,7.0,9.0,12.0,22.0,28.0,7/9/2021,12:22:28 PM,7/09/2021 12:22:28,6.554,182.27,54.3289,47.0,2375.0,2718.0,3218.0,0.0,23222.0,21940.0,0.0,0.869,5.596,12:22:28 PM,51.17141508,2.62921967,0.7,RTK       ,,,,,,,2021-07-09 12:22:28+00:00,,,,,,,,,2021-07-09 12:22:28,4.759000000000002,4.927737130562513,4.986154092669185,4.8777371305625135,-0.05,103.75796636659362,196.23173298921432,97.95395503711745,1.690662074103029,271.7996895792225,168.04172321262888,2.619554903561914,0.7575883257827112,3.6159464581164613,0.001,25.354100000000003,27.5957,1.3781,0.7690801366326834,21.185182104906172,182.6849443391781,230.0,5.11,,,,,-3.8811567061223045,1.9709864013057081
0.0,0.0,0.0,0.0,0.0,0.0021,0.0553,0.5643,0.6837,0.0754,0.0,0.0,0.0,0.0,0.0,0.0,0.0,0.0,0.0,0.0,0.0,0.0,0.0,0.0105,0.1286,0.836,2.5515,3.9368,4.4407,5.4285,7.8671,11.2351,11.4765,5.1909,0.5766,0.0153,55.07490000000001,1.0247,10.88,0.075,0.9957,0.05,-5.0,2021.0,7.0,9.0,12.0,22.0,29.0,7/9/2021,12:22:29 PM,7/09/2021 12:22:29,6.554,183.53,55.0749,47.0,2376.0,2723.0,3215.0,0.0,23222.0,22054.0,0.0,0.87,5.59,12:22:29 PM,51.1714142,2.62921417,0.9,RTK       ,,,,,,,2021-07-09 12:22:29+00:00,,,,,,,,,2021-07-09 12:22:29,4.699,4.927247340983066,4.986287967409334,4.877247340983066,-0.05,103.55673631693838,197.76119789213396,100.24245562548356,1.7056087136541032,275.4911600762582,171.93442375931983,2.6602920280638194,0.7702867137030722,3.5674661491275623,0.0021,25.1997,28.4944,1.3787,0.7657029088615588,21.14056081648763,183.98090311826329,273.0,5.11,,,,,-3.8637106933327767,1.9753700308259086
0.0,0.0,0.0,0.0,0.0,0.0031,0.0673,0.5735,0.664,0.0718,0.0,0.0,0.0,0.0,0.0,0.0,0.0,0.0,0.0,0.0,0.0,0.0,0.0,0.0098,0.1204,0.8125,2.5779,4.0406,4.5434,5.5036,7.9138,11.2347,11.434,5.1833,0.5844,0.0159,55.354000000000006,1.0227,10.9,0.075,0.9951,0.05,-5.0,2021.0,7.0,9.0,12.0,22.0,30.0,7/9/2021,12:22:30 PM,7/09/2021 12:22:30,6.554,183.25,55.3541,47.0,2369.0,2725.0,3221.0,0.0,23221.0,22100.0,0.0,0.868,5.647,12:22:30 PM,51.17141242,2.62920817,1.0,RTK       ,,,,,,,2021-07-09 12:22:30+00:00,,,,,,,,,2021-07-09 12:22:30,4.754,4.926719629549843,4.986421842149483,4.876719629549843,-0.05,103.63741812653387,197.23415253426282,100.46175485030952,1.710036067101762,275.2481528714898,171.61073474495595,2.6558762061732524,0.7740267539299532,3.5584325288804246,0.0031,25.522,28.4523,1.3766,0.7647110483504784,21.23421622171173,183.69686114024518,273.0,5.11,,,,,-3.8688411885256757,1.9731942455891545
0.0,0.0,0.0,0.0,0.0,0.0051,0.0885,0.6033,0.6206,0.0628,0.0,0.0,0.0,0.0,0.0,0.0,0.0,0.0,0.0,0.0,0.0,0.0,0.0,0.0124,0.1466,0.8999,2.6032,3.888,4.3721,5.4277,7.9845,11.4655,11.8501,5.5532,0.6637,0.0198,56.266999999999996,1.0213,10.89,0.075,0.9957,0.05,-5.0,2021.0,7.0,9.0,12.0,22.0,31.0,7/9/2021,12:22:31 PM,7/09/2021 12:22:31,6.554,184.83,56.2671,47.0,2370.0,2723.0,3226.0,0.0,23222.0,22038.0,0.0,0.867,5.724,12:22:31 PM,51.17141068,2.62920217,0.8,RTK       ,,,,,,,2021-07-09 12:22:31+00:00,,,,,,,,,2021-07-09 12:22:31,4.808999999999999,4.926161363810089,4.986555716889632,4.876161363810089,-0.05,103.52026216972328,199.02438935439278,100.49280491654369,1.701390094771513,278.18473491428813,174.66447274456485,2.6872491344563962,0.7667139600897204,3.5309016217238933,0.0051,25.3344,29.5523,1.3752,0.766651606312575,21.388678795293487,185.29716405356834,273.0,5.11,,,,,-3.8803889368731834,1.9725806670607344
0.0,0.0,0.0,0.0,0.0,0.0059,0.0965,0.6124,0.6045,0.0597,0.0,0.0,0.0,0.0,0.0,0.0,0.0,0.0,0.0,0.0,0.0,0.0,0.0,0.0126,0.1463,0.9016,2.6285,3.9132,4.3361,5.3085,7.8065,11.3899,12.0686,5.8456,0.7376,0.0235,56.497499999999995,1.0213,10.91,0.075,0.9951,0.05,-5.0,2021.0,7.0,9.0,12.0,22.0,32.0,7/9/2021,12:22:32 PM,7/09/2021 12:22:32,6.554,185.72,56.4974,47.0,2377.0,2716.0,3218.0,0.0,23221.0,21895.0,0.0,0.867,5.7,12:22:32 PM,51.17140882,2.62919717,0.9,RTK       ,,,,,,,2021-07-09 12:22:32+00:00,,,,,,,,,2021-07-09 12:22:32,4.848999999999998,4.925585857523665,4.986689591629781,4.8755858575236655,-0.05,103.4927718387944,200.2018913361432,101.81458511633232,1.7093056222628416,280.7626685441995,177.26989670540513,2.7128722475568607,0.7734103726153503,3.5121033038615495,0.0059,25.0533,30.0652,1.3731000000000002,0.7648744245100709,21.344096542074734,186.20450802301417,273.0,4.33,,,,,-3.8703491727038672,1.9748137257047265
0.0,0.0,0.0,0.0,0.0,0.0055,0.0937,0.6061,0.6077,0.061,0.0,0.0,0.0,0.0,0.0,0.0,0.0,0.0,0.0,0.0,0.0,0.0,0.0,0.0126,0.1436,0.8791,2.5906,3.9174,4.3716,5.3252,7.7847,11.3811,12.1754,5.9909,0.7541,0.0236,56.72389999999999,1.0206,10.9,0.075,0.9939,0.04,-5.0,2021.0,7.0,9.0,12.0,22.0,33.0,7/9/2021,12:22:33 PM,7/09/2021 12:22:33,6.554,186.3,56.7239,47.0,2376.0,2718.0,3212.0,0.0,23220.0,21808.0,0.0,0.868,5.68,12:22:33 PM,51.17140612,2.62919117,1.1,RTK       ,,,,,,,2021-07-09 12:22:33+00:00,,,,,,,,,2021-07-09 12:22:33,4.786,4.9249980223392456,4.98682346636993,4.8849980223392455,-0.04,103.88395789324048,200.63242723830407,102.04310143422364,1.7090912166304864,281.6910646654903,177.8071067722498,2.711593496995741,0.7732293977563613,3.5107731354199947,0.0055,25.0248,30.3251,1.3685,0.7649223997849247,21.459307528873165,186.7972169167236,273.0,5.11,,,,,-3.8792880488139687,1.9710900715626445
0.0,0.0,0.0,0.0,0.0,0.0078,0.1132,0.6299,0.5685,0.054,0.0,0.0,0.0,0.0,0.0,0.0,0.0,0.0,0.0,0.0,0.0,0.0,0.0,0.0137,0.1474,0.885,2.5968,3.9388,4.4265,5.4123,7.8357,11.2528,12.0399,6.12,0.8368,0.0302,56.9093,1.0234,10.89,0.075,0.9951,0.03,-5.0,2021.0,7.0,9.0,12.0,22.0,34.0,7/9/2021,12:22:34 PM,7/09/2021 12:22:34,6.554,186.3,56.9093,47.0,2370.0,2722.0,3216.0,0.0,23219.0,21616.0,0.0,0.869,5.62,12:22:34 PM,51.17140335,2.6291835,1.2,RTK       ,,,,,,,2021-07-09 12:22:34+00:00,,,,,,,,,2021-07-09 12:22:34,4.786,4.924393026031389,4.986957341110078,4.894393026031389,-0.03,103.87732415943601,200.2913852536169,102.62284229071892,1.7144402966413905,283.08382627895156,179.20650211951556,2.7251744167423935,0.7777376649973,3.4831184569482,0.0078,25.2562,30.2797,1.3656,0.7637281827558934,21.462817469198253,186.80059334414818,273.0,4.33,,,,,-3.8738282497472185,1.973272581139288
0.0,0.0,0.0,0.0,0.0,0.0036,0.0697,0.537,0.6639,0.0783,0.0,0.0,0.0,0.0,0.0,0.0,0.0,0.0,0.0,0.0,0.0,0.0,0.0,0.0119,0.133,0.8274,2.5088,3.8962,4.4368,5.4734,7.9673,11.3588,11.4705,5.0866,0.5435,0.0134,55.080099999999995,1.0254,10.9,0.075,0.9957,0.04,-5.0,2021.0,7.0,9.0,12.0,22.0,35.0,7/9/2021,12:22:35 PM,7/09/2021 12:22:35,6.554,183.83,55.08,47.0,2370.0,2725.0,3228.0,0.0,23220.0,21395.0,0.0,0.87,5.563,12:22:35 PM,51.17140075,2.6291765,1.1,RTK       ,,,,,,,2021-07-09 12:22:35+00:00,,,,,,,,,2021-07-09 12:22:35,4.876000000000003,4.9237730404221285,4.987091215850227,4.8837730404221285,-0.04,103.90827062585068,197.66138778611517,99.22502015201243,1.6960274975662617,274.24830005259616,170.3400294267455,2.639330809768743,0.7621595603969213,3.574247459398592,0.0036,25.2548,28.4728,1.3489,0.7678626713168781,21.514457736502752,184.27217675127673,273.0,5.11,,,,,-3.8967344873108267,1.9640008179358432
0.0,0.0,0.0,0.0,0.0,0.0087,0.1242,0.6695,0.5352,0.0479,0.0,0.0,0.0,0.0,0.0,0.0,0.0,0.0,0.0,0.0,0.0,0.0,0.0,0.0157,0.1638,0.9411,2.6506,3.9295,4.3802,5.3332,7.7036,11.1977,12.4325,6.8167,1.0611,0.0464,58.0576,1.0213,10.9,0.075,0.9945,0.05,-5.0,2021.0,7.0,9.0,12.0,22.0,36.0,7/9/2021,12:22:36 PM,7/09/2021 12:22:36,6.554,188.1,58.0575,47.0,2376.0,2720.0,3221.0,0.0,23221.0,21605.0,0.0,0.868,5.677,12:22:36 PM,51.17139842,2.62916917,1.2,RTK       ,,,,,,,2021-07-09 12:22:36+00:00,,,,,,,,,2021-07-09 12:22:36,4.865999999999998,4.923148917160995,4.987225090590376,4.873148917160995,-0.05,103.77342433461709,202.39731840916318,104.69701202237172,1.724076520888857,287.9244913925087,184.1510670578916,2.7745493919917013,0.7858238079867235,3.4410143955800945,0.0087,25.1177,31.554399999999998,1.3768,0.7615908738350416,21.362440180010857,188.64384674351834,273.0,4.33,,,,,-3.8517684194777098,1.9774851828355304
0.0,0.0,0.0,0.0,0.0,0.0328,0.2578,0.7261,0.366,0.0245,0.0,0.0,0.0,0.0,0.0,0.0,0.0,0.0,0.0,0.0,0.0,0.0,0.0011,0.0199,0.1849,0.9962,2.7138,3.9482,4.3458,5.2079,7.422,10.9786,13.2608,8.9102,2.0106,0.1555,61.56270000000001,1.0213,10.9,0.075,0.9945,0.03,-5.0,2021.0,7.0,9.0,12.0,22.0,37.0,7/9/2021,12:22:37 PM,7/09/2021 12:22:37,6.554,193.94,61.5627,47.0,2377.0,2721.0,3214.0,0.0,23219.0,20469.0,0.0,0.868,5.677,12:22:37 PM,51.1713964,2.62916067,1.3,RTK       ,,,,,,,2021-07-09 12:22:37+00:00,,,,,,,,,2021-07-09 12:22:37,4.807000000000005,4.922521570519562,4.987358965330525,4.892521570519562,-0.03,104.55667724866774,208.75896842687177,110.13668185768029,1.743880818053545,300.0786276388664,195.52195039019867,2.870009219259978,0.8023014454597175,3.1814689295354666,0.0328,24.8398,35.3157,1.3744,0.7572540411776402,21.546939266038432,194.63110971815686,273.0,4.33,,,,,-3.8397621694062916,1.9890146916573728
0.0,0.0,0.0,0.0,0.0,0.0381,0.2579,0.6864,0.3728,0.0267,0.0,0.0,0.0,0.0,0.0,0.0,0.0,0.0,0.0,0.0,0.0,0.0,0.0,0.017,0.1717,0.9862,2.7809,4.0568,4.3839,5.1819,7.3785,10.9027,13.0068,8.4195,1.7649,0.1208,60.5535,1.022,10.9,0.075,0.9957,0.05,-5.0,2021.0,7.0,9.0,12.0,22.0,38.0,7/9/2021,12:22:38 PM,7/09/2021 12:22:38,6.554,192.28,60.5536,47.0,2372.0,2723.0,3218.0,0.0,23222.0,21118.0,0.0,0.867,5.697,12:22:38 PM,51.17139433,2.62915133,1.3,RTK       ,,,,,,,2021-07-09 12:22:38+00:00,,,,,,,,,2021-07-09 12:22:38,4.766999999999999,4.92188097536391,4.987492840070674,4.8718809753639105,-0.05,103.97315360775727,206.98053829269602,109.98644279768484,1.7524609458940787,297.6515123078598,193.6783587001025,2.8627727637343923,0.8093822937122204,3.294160240895265,0.0381,24.956899999999997,34.2147,1.3438,0.7553979915926624,21.556153239468877,192.93511711842064,273.0,4.33,,,,,-3.836781722576455,1.9851944994312074
0.0,0.0,0.0,0.0,0.0019,0.0623,0.3125,0.6531,0.3165,0.0219,0.0,0.0,0.0,0.0,0.0,0.0,0.0,0.0,0.0,0.0,0.0,0.0,0.0013,0.022,0.1945,1.021,2.7741,4.0361,4.3828,5.1489,7.2472,10.7195,13.1481,9.0692,2.0939,0.1635,61.390299999999996,1.0227,10.9,0.075,0.9957,0.05,-5.0,2021.0,7.0,9.0,12.0,22.0,39.0,7/9/2021,12:22:39 PM,7/09/2021 12:22:39,6.554,194.13,61.3905,47.0,2370.0,2720.0,3224.0,0.0,23221.0,20708.0,0.0,0.868,5.67,12:22:39 PM,51.17139187,2.62914233,1.4,RTK       ,,,,,,,2021-07-09 12:22:39+00:00,,,,,,,,,2021-07-09 12:22:39,4.777000000000004,4.921219709281151,4.987626714810823,4.871219709281151,-0.05,104.15896701808609,208.98964345198635,111.97184293544339,1.7612613121107823,301.09896111973,196.93999410164392,2.8907637022499215,0.8166089726094146,3.1522139756049703,0.06420000000000001,24.8279,35.1942,1.304,0.75350840716551,21.699635288384435,194.83684385775516,273.0,4.33,,,,,-3.8355328296088795,1.9862998102749143
0.0,0.0,0.0,0.0,0.0,0.0016,0.0413,0.4291,0.7205,0.107,0.0,0.0,0.0,0.0,0.0,0.0,0.0,0.0,0.0,0.0,0.0,0.0,0.0,0.0099,0.1194,0.7917,2.4828,3.8918,4.4685,5.6179,8.2582,11.4632,10.7956,4.1977,0.3553,0.0061,53.757600000000004,1.0206,10.89,0.075,0.9957,0.05,-5.0,2021.0,7.0,9.0,12.0,22.0,40.0,7/9/2021,12:22:40 PM,7/09/2021 12:22:40,6.554,181.79,53.7577,47.0,2374.0,2719.0,3223.0,0.0,23221.0,20337.0,0.0,0.866,5.75,12:22:40 PM,51.1713889,2.6291325,1.6,RTK       ,,,,,,,2021-07-09 12:22:40+00:00,,,,,,,,,2021-07-09 12:22:40,4.797,4.920538387766309,4.987760589550971,4.8705383877663095,-0.05,103.90306710075356,194.7599199228547,95.55396423248663,1.6750678724961119,269.4832899357561,165.58022283500253,2.5936028401783497,0.7442195536777048,3.6469932106442555,0.0016,25.6402,26.8179,1.2979,0.7726517551752073,21.91127330576631,182.1770136036613,230.0,5.11,,,,,-3.935289967341168,1.9406519074538604
0.0,0.0,0.0,0.0,0.0,0.0,0.0,0.0598,0.6804,0.3901,0.0,0.0,0.0,0.0,0.0,0.0,0.0,0.0,0.0,0.0,0.0,0.0,0.0,0.0111,0.1221,0.7567,2.3157,3.7095,4.482,5.9097,8.7585,11.3173,8.5617,2.1025,0.081,0.0,49.258100000000006,1.0213,10.9,0.075,0.9933,0.05,-5.0,2021.0,7.0,9.0,12.0,22.0,41.0,7/9/2021,12:22:41 PM,7/09/2021 12:22:41,6.554,176.71,49.2582,47.0,2377.0,2722.0,3216.0,0.0,23221.0,22405.0,0.0,0.869,5.629,12:22:41 PM,51.1713849,2.62912367,1.4,RTK       ,,,,,,,2021-07-09 12:22:41+00:00,,,,,,,,,2021-07-09 12:22:41,4.922000000000002,4.919848293767603,4.98789446429112,4.869848293767603,-0.05,103.66881939085161,185.68409365487565,85.87137253919556,1.618119799375452,258.41707051262347,154.74825112177186,2.4927174055907866,0.6943184233221098,3.4990363797558106,0.0,26.0653,22.0625,1.1303,0.7861305322563892,22.80106155412512,176.97222923586554,230.0,5.11,,,,,-4.007203050899178,1.867510601789839
0.0,0.0,0.0,0.0,0.0,0.0,0.0,0.0,0.0526,0.5267,0.0,0.0,0.0,0.0,0.0,0.0,0.0,0.0,0.0,0.0,0.0,0.0,0.0,0.0043,0.0834,0.8056,2.8448,3.8082,3.7352,5.1423,9.422,12.9731,5.9203,0.2869,0.0,0.0,45.6054,1.022,10.89,0.075,0.9945,0.05,-5.0,2021.0,7.0,9.0,12.0,22.0,42.0,7/9/2021,12:22:42 PM,7/09/2021 12:22:42,6.554,177.12,45.6056,47.0,2373.0,2724.0,3216.0,0.0,23221.0,31765.0,0.0,0.868,5.65,12:22:42 PM,51.17138105,2.62911483,1.5,RTK       ,,,,,,,2021-07-09 12:22:42+00:00,,,,,,,,,2021-07-09 12:22:42,4.872000000000002,4.91916320977136,4.988028339031269,4.86916320977136,-0.05,102.06312786422674,182.86965442565054,78.06069074096692,1.568834870999082,241.22981314774967,139.16668528352292,2.3635353745836065,0.6496935082474509,3.1304571785770956,0.0,25.8458,19.1803,0.5792999999999999,0.7983831876693938,28.91912037097748,177.27086404111694,230.0,119.0,6.03,,,,-4.2193277511304315,1.6377890718858834
0.0,0.0,0.0,0.0,0.0,0.0,0.0,0.0,0.1201,0.6318,0.0,0.0,0.0,0.0,0.0,0.0,0.0,0.0,0.0,0.0,0.0,0.0,0.0,0.0129,0.1297,0.7771,2.3204,3.6183,4.3564,5.9387,9.0213,11.0721,6.8191,1.0832,0.0193,0.0,45.9204,1.022,10.9,0.075,0.9945,0.05,-5.0,2021.0,7.0,9.0,12.0,22.0,43.0,7/9/2021,12:22:43 PM,7/09/2021 12:22:43,6.554,176.66,45.9202,47.0,2370.0,2723.0,3225.0,0.0,23221.0,36988.0,0.0,0.868,5.65,12:22:43 PM,51.17137702,2.62910467,1.7,RTK       ,,,,,,,2021-07-09 12:22:43+00:00,,,,,,,,,2021-07-09 12:22:43,4.842000000000004,4.918482887856904,4.988162213771417,4.868482887856904,-0.05,103.78463295619889,181.1904964272524,80.63377865960462,1.5865063552964889,250.07604934975961,146.29141639356072,2.409567218446505,0.6658533004779672,3.58689944997898,0.0,26.174799999999998,18.9937,0.7519,0.7939242947474859,26.334598422263575,176.85627306119264,230.0,6.03,,,,,-4.134692589304527,1.714981217084735
0.0,0.0,0.0,0.0,0.0,0.0,0.0,0.0,0.0907,1.0286,0.0049,0.0,0.0,0.0,0.0,0.0,0.0,0.0,0.0,0.0,0.0,0.0,0.0,0.0115,0.1237,0.756,2.2641,3.5727,4.3681,5.9656,9.0559,11.2709,7.2972,1.2801,0.0274,0.0,47.117399999999996,1.0206,10.91,0.075,0.9951,0.04,-5.0,2021.0,7.0,9.0,12.0,22.0,44.0,7/9/2021,12:22:44 PM,7/09/2021 12:22:44,6.554,173.69,47.1174,47.0,2376.0,2721.0,3222.0,0.0,23220.0,37178.0,0.0,0.867,5.727,12:22:44 PM,51.17137327,2.62909367,1.7,RTK       ,,,,,,,2021-07-09 12:22:44+00:00,,,,,,,,,2021-07-09 12:22:44,4.842000000000001,4.917800678739419,4.988296088511566,4.877800678739419,-0.04,103.02403125640197,182.19134019990665,81.82845492310224,1.5941571367789271,252.02163597080445,148.99760471440248,2.4462412594162948,0.6727938434302354,3.0865822800735905,0.0,26.1176,19.8756,1.1241999999999999,0.7920168771706315,22.122504299797402,173.89283178801338,230.0,6.03,,,,,-3.958997089183771,1.845716220203623
0.0,0.0,0.0,0.0,0.0,0.0,0.0,0.024,0.6168,0.8935,0.0026,0.0,0.0,0.0,0.0,0.0,0.0,0.0,0.0,0.0,0.0,0.0,0.0,0.0136,0.1418,0.8398,2.468,3.8305,4.4588,5.6201,8.2134,11.532,11.5072,5.1487,0.5769,0.0157,55.9034,1.0213,10.89,0.075,0.9951,0.04,-5.0,2021.0,7.0,9.0,12.0,22.0,45.0,7/9/2021,12:22:45 PM,7/09/2021 12:22:45,6.554,182.93,55.9034,47.0,2377.0,2727.0,3215.0,0.0,23220.0,36893.0,0.0,0.867,5.7,12:22:45 PM,51.1713697,2.62908233,1.8,RTK       ,,,,,,,2021-07-09 12:22:45+00:00,,,,,,,,,2021-07-09 12:22:45,4.851999999999999,4.917115570232108,4.988429963251716,4.877115570232108,-0.04,103.58490978213081,197.32729990403206,98.65092302105174,1.6906492860865103,274.3743695041165,170.78945972198568,2.6487870683211057,0.7575774133253543,3.312780444619532,0.0,25.586,28.7805,1.5369,0.7690830452758226,19.37263867256951,183.36609124993237,230.0,6.03,,,,,-3.6970312614516825,1.9712988551908148
2.6292,0.9192,0.4058,0.1451,0.0454,0.0137,0.0039,0.0,0.0,0.0,0.0,0.0,0.0,0.0,0.0,0.0,0.0,0.0,0.0,0.0,0.0,0.0,0.0035,0.0347,0.2618,1.2269,3.0597,4.2089,4.3367,4.714,6.1432,9.0412,13.3389,15.4076,9.6314,3.5904,79.16120000000001,1.0206,10.89,0.075,0.9945,0.04,-5.0,2021.0,7.0,9.0,12.0,22.0,46.0,7/9/2021,12:22:46 PM,7/09/2021 12:22:46,6.554,183.07,79.1612,47.0,2373.0,2730.0,3219.0,0.0,23220.0,28311.0,0.0,0.867,5.703,12:22:46 PM,51.17136647,2.62907033,1.8,RTK       ,,,,,,,2021-07-09 12:22:46+00:00,,,,,,,,,2021-07-09 12:22:46,4.922,4.916433283772586,4.988563837991864,4.876433283772586,-0.04,96.43006333749042,237.16569647507995,148.4620081934617,1.9720941343576877,356.80807234945826,260.37800901196783,3.7001746136024485,0.9797284178059396,3.248146018795703,4.1584,23.9894,51.0095,0.0039,0.7120921190447284,13.510703866712161,183.62419849903677,324.0,,,,,,-3.29841354447534,3.4000333509540854
0.0,0.0,0.0,0.0,0.0,0.0137,0.1377,0.5573,0.4975,0.0573,0.0,0.0,0.0,0.0,0.0,0.0,0.0,0.0,0.0,0.0,0.0,0.0,0.0016,0.0253,0.2028,1.0008,2.62,3.8168,4.3246,5.3894,7.8321,11.3259,12.4637,6.689,0.9905,0.0399,57.985899999999994,1.0213,10.89,0.075,0.9957,0.03,-5.0,2021.0,7.0,9.0,12.0,22.0,47.0,7/9/2021,12:22:47 PM,7/09/2021 12:22:47,6.554,189.25,57.9859,47.0,2373.0,2725.0,3224.0,0.0,23218.0,18577.0,0.0,0.867,5.724,12:22:47 PM,51.171363,2.62905817,1.8,RTK       ,,,,,,,2021-07-09 12:22:47+00:00,,,,,,,,,2021-07-09 12:22:47,4.912000000000002,4.915762464721683,4.988697712732013,4.885762464721683,-0.03,104.01514013086107,202.28387735253833,103.30911777942325,1.710523957392943,286.7624290194017,182.7472888885406,2.756929699451704,0.7744383104606483,3.3633362798601283,0.0137,25.2134,31.509,1.2498,0.7646019818558013,22.358172380161477,189.7910554453365,273.0,4.33,,,,,-3.9054886566911637,1.935420391566552
0.0,0.0,0.0,0.0,0.0,0.0066,0.094,0.5111,0.5518,0.0727,0.0,0.0,0.0,0.0,0.0,0.0,0.0,0.0,0.0,0.0,0.0,0.0,0.0014,0.0223,0.187,0.9661,2.5977,3.7983,4.3059,5.4377,8.0481,11.594,12.1825,5.9102,0.7422,0.0237,57.053299999999986,1.0206,10.9,0.075,0.9951,0.03,-5.0,2021.0,7.0,9.0,12.0,22.0,48.0,7/9/2021,12:22:48 PM,7/09/2021 12:22:48,6.554,187.79,57.0532,47.0,2374.0,2732.0,3225.0,0.0,23219.0,18455.0,0.0,0.867,5.727,12:22:48 PM,51.17135855,2.6290465,1.9,RTK       ,,,,,,,2021-07-09 12:22:48+00:00,,,,,,,,,2021-07-09 12:22:48,4.7879999999999985,4.915098510385461,4.988831587472162,4.885098510385461,-0.03,104.07515132891007,200.42136232942414,100.41731273935542,1.6928040498731542,280.78906939336423,176.71391806445416,2.6979453386138528,0.7594149840797741,3.4210605532817477,0.0066,25.3645,30.452599999999997,1.2296,0.7685934079816125,22.63641987104926,188.2777591628897,273.0,5.11,,,,,-3.9377010930249856,1.919784068819891
0.0,0.0,0.0,0.0,0.0,0.0034,0.0601,0.4216,0.6088,0.0994,0.0,0.0,0.0,0.0,0.0,0.0,0.0,0.0,0.0,0.0,0.0,0.0,0.0014,0.024,0.1994,0.9985,2.5874,3.7073,4.2349,5.4748,8.2501,11.6935,11.3784,4.7488,0.4681,0.0104,54.9703,1.0227,10.89,0.075,0.9939,0.03,-5.0,2021.0,7.0,9.0,12.0,22.0,49.0,7/9/2021,12:22:49 PM,7/09/2021 12:22:49,6.554,184.8,54.9702,47.0,2377.0,2726.0,3217.0,0.0,23219.0,18550.0,0.0,0.869,5.6,12:22:49 PM,51.1713536,2.62903383,2.1,RTK       ,,,,,,,2021-07-09 12:22:49+00:00,,,,,,,,,2021-07-09 12:22:49,4.798000000000004,4.914426302438566,4.9889654622123105,4.884426302438566,-0.03,103.22706778107636,197.25389068501005,96.74996816142271,1.6747505179305924,271.8930690645275,168.66600128345112,2.6339319222082085,0.7439461980471087,3.507577818162773,0.0034,25.477800000000002,28.2992,1.1899,0.7727249580028406,22.70102350418823,185.22286614571513,230.0,5.11,,,,,-3.948882780761057,1.9058397976503314
0.0,0.0,0.0,0.0,0.0,0.0,0.0,0.0,0.017,0.0823,0.0,0.0,0.0,0.0,0.0,0.0,0.0,0.0,0.0,0.0,0.0,0.0,0.0,0.0086,0.1395,1.0895,3.0962,3.5124,3.3007,4.8375,9.5273,13.5638,6.1651,0.2878,0.0,0.0,45.6277,1.0165,10.89,0.075,0.9933,0.04,-5.0,2021.0,7.0,9.0,12.0,22.0,50.0,7/9/2021,12:22:50 PM,7/09/2021 12:22:50,6.554,183.99,45.6275,47.0,2376.0,2718.0,3217.0,0.0,23220.0,31629.0,0.0,0.865,5.817,12:22:50 PM,51.17134858,2.629021,2.0,RTK       ,,,,,,,2021-07-09 12:22:50+00:00,,,,,,,,,2021-07-09 12:22:50,4.848000000000001,4.913742891910329,4.989099336952459,4.873742891910329,-0.04,101.61337215164389,185.66679156160734,75.77593350101745,1.5383100318611058,242.4088473805337,140.7954752288898,2.3855998698554366,0.6213462941663406,2.7430736145758514,0.0,25.5117,20.0167,0.0993,0.8062654760332446,20.75731560346023,184.14851044025275,230.0,119.0,6.03,,,,-2.491475267227316,1.428482897698995
0.0,0.0,0.0,0.0,0.0,0.0,0.0,0.0,0.0706,0.8916,0.0043,0.0,0.0,0.0,0.0,0.0,0.0,0.0,0.0,0.0,0.0,0.0,0.0,0.017,0.1529,0.8262,2.2788,3.4515,4.245,5.9981,9.3527,11.4775,6.9255,1.0743,0.0191,0.0,46.7851,1.0186,10.9,0.075,0.9945,0.03,-5.0,2021.0,7.0,9.0,12.0,22.0,51.0,7/9/2021,12:22:51 PM,7/09/2021 12:22:51,6.554,174.84,46.785,47.0,2370.0,2720.0,3223.0,0.0,23219.0,37182.0,0.0,0.865,5.784,12:22:51 PM,51.17134308,2.62900883,2.0,RTK       ,,,,,,,2021-07-09 12:22:51+00:00,,,,,,,,,2021-07-09 12:22:51,4.798000000000004,4.913052352055549,4.989233211692609,4.883052352055548,-0.03,103.11969757248697,181.8910948574511,79.44021685966916,1.5727035213794245,249.82167991675712,146.70198234427016,2.422637825728178,0.6532467263481632,3.0987393222432105,0.0,26.322200000000002,19.4964,0.9664999999999999,0.7974006225669126,23.877086121019413,175.02747612446814,230.0,6.03,,,,,-4.060708427726084,1.7879342737842043
0.0,0.0,0.0,0.0,0.0,0.0,0.0,0.0,0.0786,0.9671,0.0055,0.0,0.0,0.0,0.0,0.0,0.0,0.0,0.0,0.0,0.0,0.0,0.0,0.0155,0.1456,0.805,2.2372,3.3878,4.1614,5.9057,9.2961,11.6116,7.2562,1.1768,0.022,0.0,47.07209999999999,1.0213,10.89,0.075,0.9933,0.04,-5.0,2021.0,7.0,9.0,12.0,22.0,52.0,7/9/2021,12:22:52 PM,7/09/2021 12:22:52,6.554,175.02,47.072,47.0,2371.0,2726.0,3225.0,0.0,23220.0,37178.0,0.0,0.869,5.629,12:22:52 PM,51.17133797,2.62899567,2.2,RTK       ,,,,,,,2021-07-09 12:22:52+00:00,,,,,,,,,2021-07-09 12:22:52,4.8620000000000045,4.912355862097199,4.9893670864327575,4.872355862097199,-0.04,103.23791217126545,183.21354037309447,79.61294555963246,1.5694567389557403,251.28874263952122,148.05083046825575,2.4340742403105597,0.6502652625267893,3.1211748068501266,0.0,25.9543,20.066599999999998,1.0512,0.7982249997754283,23.022799856182342,175.218660428353,230.0,6.03,,,,,-4.024632836644288,1.8185463244441573
0.0,0.0,0.0,0.0,0.0,0.0,0.0,0.0,0.0772,1.0018,0.0069,0.0,0.0,0.0,0.0,0.0,0.0,0.0,0.0,0.0,0.0,0.0,0.0,0.015,0.1458,0.8218,2.2948,3.4715,4.2541,5.9996,9.3296,11.3975,6.9441,1.106,0.0206,0.0,46.886300000000006,1.0206,10.9,0.075,0.9927,0.04,-5.0,2021.0,7.0,9.0,12.0,22.0,53.0,7/9/2021,12:22:53 PM,7/09/2021 12:22:53,6.554,173.34,46.8865,47.0,2377.0,2726.0,3218.0,0.0,23220.0,37179.0,0.0,0.869,5.633,12:22:53 PM,51.17133313,2.62898117,2.2,RTK       ,,,,,,,2021-07-09 12:22:53+00:00,,,,,,,,,2021-07-09 12:22:53,4.901999999999997,4.911660921445886,4.989500961172906,4.871660921445886,-0.04,102.56430616828335,181.6033371173503,80.10473543559291,1.580262568622985,250.02344385551658,147.45913768723324,2.4377237383665253,0.6601642894012554,3.1631641889343687,0.0,26.3322,19.4682,1.0858999999999999,0.7954911884956685,22.511333111403474,173.5210923964631,230.0,6.03,,,,,-3.9878146057799575,1.8312192195281463
0.0,0.0,0.0,0.0,0.0,0.0,0.0,0.001,0.1435,1.0038,0.0078,0.0,0.0,0.0,0.0,0.0,0.0,0.0,0.0,0.0,0.0,0.0,0.0014,0.0232,0.1882,0.9346,2.4321,3.5515,4.2356,5.818,9.0443,11.8927,8.9297,2.1815,0.0859,0.0,50.47480000000001,1.0179,10.89,0.075,0.9933,0.03,-5.0,2021.0,7.0,9.0,12.0,22.0,54.0,7/9/2021,12:22:54 PM,7/09/2021 12:22:54,6.554,177.66,50.4748,47.0,2378.0,2724.0,3215.0,0.0,23218.0,37058.0,0.0,0.866,5.763,12:22:54 PM,51.17132825,2.62896717,2.1,RTK       ,,,,,,,2021-07-09 12:22:54+00:00,,,,,,,,,2021-07-09 12:22:54,4.812,4.910970959980469,4.989634835913055,4.880970959980469,-0.03,102.46514278640565,187.41623411803363,85.12585421912482,1.6063955952936853,258.81466842506205,156.34952563865642,2.5258801323741458,0.6838272185642529,2.883324685145321,0.0,26.2289,23.0898,1.1561000000000001,0.7889940855734533,21.829489496950202,177.92078548339015,230.0,6.03,,,,,-3.8875256003617245,1.8485398315959802
0.0,0.0,0.0,0.0,0.0,0.0,0.0,0.0067,0.3145,0.7616,0.0029,0.0,0.0,0.0,0.0,0.0,0.0,0.0,0.0,0.0,0.0,0.0,0.0015,0.0253,0.1943,0.9214,2.3338,3.4112,4.1744,5.9141,9.2827,11.8912,8.319,1.7914,0.0573,0.0,49.4033,1.0193,10.88,0.075,0.9945,0.03,-5.0,2021.0,7.0,9.0,12.0,22.0,55.0,7/9/2021,12:22:55 PM,7/09/2021 12:22:55,6.554,177.09,49.4032,47.0,2374.0,2731.0,3224.0,0.0,23219.0,36822.0,0.0,0.866,5.757,12:22:55 PM,51.17132298,2.62895317,2.4,RTK       ,,,,,,,2021-07-09 12:22:55+00:00,,,,,,,,,2021-07-09 12:22:55,4.772000000000001,4.91027505556624,4.989768710653204,4.88027505556624,-0.03,102.85392618266549,185.94294604246386,82.34123809641824,1.5848404044391562,256.1533736229486,153.29944744028313,2.490457905982392,0.6643375663477009,2.774058817136783,0.0,26.2587,22.0589,1.0856999999999999,0.7943414633960846,22.86614951788126,177.31917165922704,230.0,6.03,,,,,-3.9886361970340594,1.832916514903881
0.0,0.0,0.0,0.0,0.0,0.0,0.0,0.0749,0.611,0.3828,0.0014,0.0,0.0,0.0,0.0,0.0,0.0,0.0,0.0,0.0,0.0,0.0,0.0018,0.029,0.2168,0.9941,2.4312,3.4505,4.1308,5.7721,9.0878,12.0388,9.2246,2.389,0.1064,0.0,50.943000000000005,1.0193,10.89,0.075,0.9951,0.03,-5.0,2021.0,7.0,9.0,12.0,22.0,56.0,7/9/2021,12:22:56 PM,7/09/2021 12:22:56,6.554,179.36,50.943,47.0,2372.0,2737.0,3227.0,0.0,23219.0,36677.0,0.0,0.865,5.78,12:22:56 PM,51.17131773,2.628937,2.5,RTK       ,,,,,,,2021-07-09 12:22:56+00:00,,,,,,,,,2021-07-09 12:22:56,4.9389999999999965,4.909573325566102,4.989902585393352,4.879573325566102,-0.03,102.70059168948622,188.95640043187873,85.16939132502057,1.6012693649014769,260.13075204322894,157.43016035374274,2.5329041222053577,0.6792160178602211,2.9430744353348848,0.0,26.1141,23.7588,1.0700999999999998,0.790256001182019,23.358717963950845,179.63892763264516,230.0,5.11,,,,,-4.011067220179,1.8408979816128492
0.0,0.0,0.0,0.0,0.0,0.0,0.0024,0.2727,0.7134,0.192,0.0,0.0,0.0,0.0,0.0,0.0,0.0,0.0,0.0,0.0,0.0,0.0,0.0021,0.0307,0.227,1.0373,2.5305,3.5645,4.1682,5.603,8.6671,12.1155,11.083,4.1039,0.3324,0.0055,54.651199999999996,1.0179,10.89,0.075,0.9951,0.03,-5.0,2021.0,7.0,9.0,12.0,22.0,57.0,7/9/2021,12:22:57 PM,7/09/2021 12:22:57,6.554,183.75,54.651,47.0,2378.0,2737.0,3217.0,0.0,23219.0,36637.0,0.0,0.864,5.834,12:22:57 PM,51.17131227,2.6289215,2.3,RTK       ,,,,,,,2021-07-09 12:22:57+00:00,,,,,,,,,2021-07-09 12:22:57,4.998999999999999,4.908887665391959,4.990036460133501,4.878887665391959,-0.03,103.14626706879984,195.83794451772206,92.88228666158352,1.6457477665024778,268.7137577379115,165.5674906691117,2.6051719114437373,0.7187432398296281,3.5521733145157195,0.0,25.830399999999997,27.6403,1.1805,0.7795040264140474,22.72223030035529,184.13258467861215,230.0,5.11,,,,,-3.9531730072704407,1.8847700618191405
0.0,0.0,0.0,0.0,0.0,0.0,0.0,0.1028,0.6189,0.327,0.0015,0.0,0.0,0.0,0.0,0.0,0.0,0.0,0.0,0.0,0.0,0.0,0.0022,0.0319,0.2197,0.9774,2.4037,3.4687,4.1869,5.8243,9.082,12.0073,9.371,2.5204,0.1173,0.0,51.263000000000005,1.0193,10.88,0.075,0.9957,0.02,-5.0,2021.0,7.0,9.0,12.0,22.0,58.0,7/9/2021,12:22:58 PM,7/09/2021 12:22:58,6.554,180.03,51.2631,47.0,2377.0,2734.0,3216.0,0.0,23217.0,36572.0,0.0,0.865,5.804,12:22:58 PM,51.17130645,2.628907,2.4,RTK       ,,,,,,,2021-07-09 12:22:58+00:00,,,,,,,,,2021-07-09 12:22:58,4.869000000000003,4.908227467286,4.99017033487365,4.888227467286001,-0.02,103.12901880320004,189.29073078813155,85.57334382387631,1.6031015336753351,260.85276397018816,157.72374516698812,2.5293827770045074,0.6808658025922814,2.9308134350742496,0.0,26.1968,24.016000000000002,1.0502,0.789804284223532,23.71074587428912,180.3129097484472,230.0,5.11,,,,,-4.032097694530568,1.8348986931339148
0.0,0.0,0.0,0.0,0.0,0.0,0.002,0.2343,0.6825,0.2103,0.0011,0.0,0.0,0.0,0.0,0.0,0.0,0.0,0.0,0.0,0.0,0.0,0.0024,0.0336,0.236,1.0542,2.5442,3.5383,4.1086,5.5707,8.7197,12.1735,10.958,3.9293,0.3012,0.0046,54.304500000000004,1.0193,10.89,0.075,0.9945,0.03,-5.0,2021.0,7.0,9.0,12.0,22.0,59.0,7/9/2021,12:22:59 PM,7/09/2021 12:22:59,6.554,183.87,54.3045,47.0,2373.0,2726.0,3223.0,0.0,23218.0,36438.0,0.0,0.866,5.757,12:22:59 PM,51.17129975,2.62889233,2.6,RTK       ,,,,,,,2021-07-09 12:22:59+00:00,,,,,,,,,2021-07-09 12:22:59,4.779,4.907574641172348,4.990304209613799,4.877574641172348,-0.03,103.03249264027474,195.56763318817536,92.00362743585964,1.6394138248161427,267.9433290734678,164.91083643319305,2.60057116165246,0.7131800689905794,3.167818959439439,0.0,25.8077,27.366600000000002,1.1301999999999999,0.78100839744795,23.077519901285225,184.24232131133104,230.0,5.11,,,,,-3.9671112714190544,1.8668877512990798
0.0,0.0,0.0,0.0,0.0,0.0,0.0,0.0796,0.5638,0.3568,0.002,0.0,0.0,0.0,0.0,0.0,0.0,0.0,0.0,0.0,0.0,0.0,0.0026,0.0362,0.2427,1.0388,2.4365,3.3962,4.0805,5.7834,9.198,12.185,9.2854,2.379,0.1019,0.0,51.1684,1.0172,10.89,0.075,0.9945,0.03,-5.0,2021.0,7.0,9.0,12.0,23.0,0.0,7/9/2021,12:23:00 PM,7/09/2021 12:23:00,6.554,180.29,51.1685,47.0,2373.0,2724.0,3225.0,0.0,23219.0,36461.0,0.0,0.864,5.837,12:23:00 PM,51.17129322,2.62887583,2.7,RTK       ,,,,,,,2021-07-09 12:23:00+00:00,,,,,,,,,2021-07-09 12:23:00,4.92,4.906918874353578,4.990438084353948,4.876918874353578,-0.03,102.760461248794,189.30184928272382,84.59516197366017,1.5947748507704975,260.0351682124576,157.27470696366362,2.5304982583027225,0.673352759661094,2.9675498177492865,0.0,26.2149,23.9513,1.0022,0.7918634739204462,24.07522651124415,180.56566222913338,230.0,5.11,,,,,-4.041240441870585,1.815677472210887
0.0,0.0,0.0,0.0,0.0,0.0,0.0,0.0791,0.5531,0.3543,0.0022,0.0,0.0,0.0,0.0,0.0,0.0,0.0,0.0,0.0,0.0,0.0,0.0029,0.0389,0.2507,1.044,2.407,3.3353,4.0385,5.7931,9.2701,12.3395,9.5104,2.4542,0.1058,0.0,51.57910000000001,1.0165,10.89,0.075,0.9939,0.03,-5.0,2021.0,7.0,9.0,12.0,23.0,1.0,7/9/2021,12:23:01 PM,7/09/2021 12:23:01,6.554,181.23,51.579,47.0,2373.0,2725.0,3221.0,0.0,23218.0,36568.0,0.0,0.864,5.841,12:23:01 PM,51.1712871,2.62885867,2.6,RTK       ,,,,,,,2021-07-09 12:23:01+00:00,,,,,,,,,2021-07-09 12:23:01,4.99,4.9062763750776295,4.990571959094097,4.876276375077629,-0.03,103.13651288311895,190.2116198859168,84.31010201309152,1.5888923665157213,260.5131495736097,157.37663669049078,2.5259061247188015,0.6680213980952496,2.970344512128212,0.0,26.1805,24.4099,0.9887,0.7933279598375186,24.360798022630277,181.50821175435078,230.0,5.11,,,,,-4.059930200331783,1.808252356874884
0.0,0.0,0.0,0.0,0.0,0.0,0.0,0.1508,0.6194,0.2719,0.0019,0.0,0.0,0.0,0.0,0.0,0.0,0.0,0.0,0.0,0.0,0.0,0.0031,0.0392,0.2491,1.0432,2.451,3.4281,4.0968,5.7305,8.999,12.0761,10.0293,3.1554,0.1938,0.0021,52.5407,1.0234,10.89,0.075,0.9927,0.03,-5.0,2021.0,7.0,9.0,12.0,23.0,2.0,7/9/2021,12:23:02 PM,7/09/2021 12:23:02,6.554,182.26,52.5407,47.0,2376.0,2720.0,3214.0,0.0,23218.0,36557.0,0.0,0.871,5.526,12:23:02 PM,51.17128105,2.628843,2.5,RTK       ,,,,,,,2021-07-09 12:23:02+00:00,,,,,,,,,2021-07-09 12:23:02,4.889999999999999,4.905658050767392,4.990705833834245,4.875658050767392,-0.03,103.071971075429,192.0767944159001,87.79768076893177,1.6132450917515655,264.26569598436333,161.1937249089343,2.5638948515981257,0.6899656361336421,3.301544483045728,0.0,26.04,25.4567,1.044,0.78731735315484,23.732284818314586,182.57872917084455,230.0,5.11,,,,,-4.008866116993406,1.8354127606235398
0.0,0.0,0.0,0.0,0.0,0.0,0.0037,0.2658,0.6451,0.1935,0.0015,0.0,0.0,0.0,0.0,0.0,0.0,0.0,0.0,0.0,0.0,0.0,0.0036,0.0414,0.2595,1.0752,2.5126,3.5204,4.1753,5.6865,8.7747,12.1842,11.3354,4.3992,0.3852,0.0072,55.47,1.0165,10.89,0.075,0.9939,0.03,-5.0,2021.0,7.0,9.0,12.0,23.0,3.0,7/9/2021,12:23:03 PM,7/09/2021 12:23:03,6.554,185.5,55.47,47.0,2376.0,2717.0,3215.0,0.0,23219.0,36421.0,0.0,0.864,5.841,12:23:03 PM,51.17127497,2.62882633,2.8,RTK       ,,,,,,,2021-07-09 12:23:03+00:00,,,,,,,,,2021-07-09 12:23:03,4.859999999999998,4.905053760208974,4.990839708574394,4.875053760208973,-0.03,103.59766558127494,196.52827308870434,93.18021315114956,1.6434508924939275,269.89960719923175,166.3019416179568,2.6052672681846176,0.716728348286825,3.148013721955901,0.0,26.0492,28.3112,1.1096,0.7800485505652297,23.40739568190122,185.8987506245866,230.0,5.11,,,,,-3.97366356316939,1.8569159392478642
0.0,0.0,0.0,0.0,0.0,0.0,0.0016,0.1783,0.6099,0.249,0.0022,0.0,0.0,0.0,0.0,0.0,0.0,0.0,0.0,0.0,0.0,0.0,0.0047,0.049,0.2795,1.0995,2.5112,3.4735,4.0896,5.621,8.7957,12.1415,10.782,3.7597,0.2712,0.0037,53.9228,1.0193,10.87,0.075,0.9939,0.04,-5.0,2021.0,7.0,9.0,12.0,23.0,4.0,7/9/2021,12:23:04 PM,7/09/2021 12:23:04,6.554,184.22,53.9228,47.0,2371.0,2723.0,3226.0,0.0,23220.0,36232.0,0.0,0.866,5.733,12:23:04 PM,51.17126855,2.62880783,2.8,RTK       ,,,,,,,2021-07-09 12:23:04+00:00,,,,,,,,,2021-07-09 12:23:04,4.890000000000005,4.904455411746575,4.990973583314543,4.864455411746575,-0.04,102.9615028724752,194.9877785810405,91.06710935330872,1.6329848782676446,267.1712625258556,164.2097596533804,2.5948656058057478,0.7075114313470738,3.2597806315646882,0.0,25.9237,26.9581,1.041,0.7825442748221852,23.640192140567077,184.5756983113349,230.0,5.11,,,,,-3.9737232454509335,1.834783172287605
0.0,0.0,0.0,0.0,0.0,0.0,0.0,0.0487,0.4423,0.4069,0.0043,0.0,0.0,0.0,0.0,0.0,0.0,0.0,0.0,0.0,0.0,0.0,0.0039,0.0449,0.2647,1.0545,2.4129,3.3661,4.0994,5.8895,9.2953,11.9854,8.8846,2.2377,0.0947,0.0,50.5358,1.0213,10.89,0.075,0.9951,0.03,-5.0,2021.0,7.0,9.0,12.0,23.0,5.0,7/9/2021,12:23:05 PM,7/09/2021 12:23:05,6.554,180.46,50.5359,47.0,2372.0,2728.0,3225.0,0.0,23219.0,36356.0,0.0,0.867,5.7,12:23:05 PM,51.17126197,2.6287905,2.7,RTK       ,,,,,,,2021-07-09 12:23:05+00:00,,,,,,,,,2021-07-09 12:23:05,4.900000000000003,4.903865461094333,4.9911074580546915,4.873865461094333,-0.03,102.83965494380124,187.89412235129208,83.6462793071131,1.5894380893457272,259.0387368370972,156.19908189329595,2.5188604238185555,0.66851682274616,3.035422885390564,0.0,26.431199999999997,23.2024,0.9022,0.7931917562476579,24.809249854265662,180.72643672457608,230.0,5.11,,,,,-4.047115808721325,1.7777618292481792
0.0,0.0,0.0,0.0,0.0,0.0,0.0,0.0431,0.4155,0.4204,0.0052,0.0,0.0,0.0,0.0,0.0,0.0,0.0,0.0,0.0,0.0,0.0,0.0054,0.0543,0.2894,1.085,2.4041,3.3056,4.0111,5.79,9.3152,12.2755,9.1909,2.2684,0.0926,0.0,50.97169999999999,1.0199,10.89,0.075,0.9945,0.03,-5.0,2021.0,7.0,9.0,12.0,23.0,6.0,7/9/2021,12:23:06 PM,7/09/2021 12:23:06,6.554,181.47,50.9716,47.0,2378.0,2725.0,3215.0,0.0,23218.0,36615.0,0.0,0.867,5.73,12:23:06 PM,51.17125502,2.62877383,2.8,RTK       ,,,,,,,2021-07-09 12:23:06+00:00,,,,,,,,,2021-07-09 12:23:06,4.840000000000001,4.903283257657382,4.991241332794841,4.8732832576573815,-0.03,102.89553345110161,189.2857456755935,83.52122772158455,1.58478321810086,259.41978040948544,156.52424695838383,2.5211957381295647,0.6642855081499461,3.0535375529526565,0.0,26.2601,23.827399999999997,0.8842,0.7943557950312717,24.980575507857232,181.74379116812685,230.0,6.03,,,,,-4.048571037140513,1.7689707808782462
0.0,0.0,0.0,0.0,0.0,0.0,0.0059,0.2815,0.601,0.1836,0.0021,0.0,0.0,0.0,0.0,0.0,0.0,0.0,0.0,0.0,0.0,0.0,0.0062,0.0573,0.3038,1.1401,2.5458,3.488,4.0928,5.5897,8.6929,12.1183,11.3481,4.5441,0.4297,0.0091,55.44,1.0213,10.89,0.075,0.9933,0.04,-5.0,2021.0,7.0,9.0,12.0,23.0,7.0,7/9/2021,12:23:07 PM,7/09/2021 12:23:07,6.554,185.97,55.4398,47.0,2375.0,2722.0,3215.0,0.0,23220.0,36665.0,0.0,0.869,5.629,12:23:07 PM,51.17124798,2.62875567,3.0,RTK       ,,,,,,,2021-07-09 12:23:07+00:00,,,,,,,,,2021-07-09 12:23:07,4.850000000000002,4.902702672687492,4.99137520753499,4.862702672687492,-0.04,102.99839630748016,196.94693756709407,93.92437716848582,1.648553170091329,270.69626432547824,167.69786801799808,2.628159991126184,0.72120041839444,3.159011775735006,0.0,25.9166,28.4493,1.0741,0.7788404886602087,23.416700074098614,186.36915034747707,230.0,5.11,,,,,-3.9487302169554863,1.8503322947645326
0.0,0.0,0.0,0.0,0.0,0.0,0.0026,0.1849,0.5737,0.2475,0.0034,0.0,0.0,0.0,0.0,0.0,0.0,0.0,0.0,0.0,0.0,0.0,0.0059,0.0569,0.3014,1.1242,2.4891,3.4014,4.0411,5.6606,8.9538,12.2859,10.7189,3.7081,0.2753,0.004,54.0387,1.022,10.89,0.075,0.9945,0.04,-5.0,2021.0,7.0,9.0,12.0,23.0,8.0,7/9/2021,12:23:08 PM,7/09/2021 12:23:08,6.554,184.55,54.0386,47.0,2370.0,2721.0,3224.0,0.0,23220.0,36561.0,0.0,0.868,5.65,12:23:08 PM,51.17124087,2.628737,2.9,RTK       ,,,,,,,2021-07-09 12:23:08+00:00,,,,,,,,,2021-07-09 12:23:08,4.860000000000004,4.9021219821194855,4.9915090822751385,4.862121982119485,-0.04,103.03771538083376,194.90124839465258,89.99509393587013,1.6230274704385905,266.8863200015148,163.84860462068102,2.5901808771194745,0.6986874183271254,3.288792160930323,0.0,26.034399999999998,26.9922,1.0121,0.7849410912155792,23.978563411732114,184.9054346141874,230.0,5.11,,,,,-3.9911126891621205,1.8235520010763002
0.0,0.0,0.0,0.0,0.0,0.0,0.0021,0.1615,0.5554,0.2672,0.0041,0.0,0.0,0.0,0.0,0.0,0.0,0.0,0.0,0.0,0.0,0.0011,0.0072,0.0642,0.3184,1.1454,2.5201,3.4485,4.06,5.5913,8.7982,12.1709,10.7101,3.6513,0.2565,0.0034,53.7369,1.0206,10.89,0.075,0.9945,0.03,-5.0,2021.0,7.0,9.0,12.0,23.0,9.0,7/9/2021,12:23:09 PM,7/09/2021 12:23:09,6.554,184.28,53.7367,47.0,2372.0,2719.0,3224.0,0.0,23218.0,36353.0,0.0,0.867,5.703,12:23:09 PM,51.17123387,2.62871917,2.9,RTK       ,,,,,,,2021-07-09 12:23:09+00:00,,,,,,,,,2021-07-09 12:23:09,4.825000000000005,4.901541024945255,4.991642957015287,4.871541024945254,-0.03,102.58291851449577,194.7178868147252,90.74759721147254,1.6316682136744312,266.68488024639123,164.10196173189547,2.5997006529767095,0.7063477269480831,3.2115439242713344,0.0,25.9544,26.7922,0.9903,0.7828599457889178,23.85247547546518,184.6377190776207,230.0,5.11,,,,,-3.961954639740531,1.8179041278495467
0.0,0.0,0.0,0.0,0.0,0.0,0.0,0.0359,0.3674,0.4474,0.0089,0.0,0.0,0.0,0.0,0.0,0.0,0.0,0.0,0.0,0.0,0.0011,0.0076,0.0687,0.3268,1.1291,2.4095,3.2903,4.017,5.841,9.3244,12.1181,9.0311,2.2671,0.096,0.0,50.7874,1.0199,10.89,0.075,0.9945,0.03,-5.0,2021.0,7.0,9.0,12.0,23.0,10.0,7/9/2021,12:23:10 PM,7/09/2021 12:23:10,6.554,181.13,50.7874,47.0,2376.0,2710.0,3215.0,0.0,23218.0,36486.0,0.0,0.867,5.73,12:23:10 PM,51.17122673,2.62870067,3.0,RTK       ,,,,,,,2021-07-09 12:23:10+00:00,,,,,,,,,2021-07-09 12:23:10,4.765000000000002,4.900952628048459,4.991776831755436,4.8709526280484585,-0.03,102.40079885381974,188.53671691531707,83.62309268624728,1.5875236304364722,259.2866737208161,156.88587486699637,2.5320766695478203,0.6667780666941159,2.988030204170612,0.0,26.4155,23.5123,0.8596,0.7936698831416911,24.83010997549096,181.40065929726245,230.0,6.03,,,,,-4.0096373862955925,1.7611432350231357
0.0,0.0,0.0,0.0,0.0,0.0,0.0,0.0529,0.418,0.4166,0.0083,0.0,0.0,0.0,0.0,0.0,0.0,0.0,0.0,0.0,0.0,0.0,0.0063,0.0614,0.3127,1.1328,2.4496,3.2927,3.9445,5.7319,9.355,12.3438,9.2827,2.3873,0.1062,0.0,51.3027,1.0206,10.89,0.075,0.9945,0.03,-5.0,2021.0,7.0,9.0,12.0,23.0,11.0,7/9/2021,12:23:11 PM,7/09/2021 12:23:11,6.554,181.57,51.3029,47.0,2372.0,2712.0,3215.0,0.0,23219.0,36623.0,0.0,0.867,5.703,12:23:11 PM,51.17121927,2.62868117,3.1,RTK       ,,,,,,,2021-07-09 12:23:11+00:00,,,,,,,,,2021-07-09 12:23:11,4.754999999999997,4.900347032439911,4.9919107064955845,4.870347032439911,-0.03,102.37595500344848,189.73985292721545,83.8345804757571,1.5864203210251022,260.027503328292,157.65154832484353,2.5399274987914215,0.6657750627943595,3.0844823927793237,0.0,26.286900000000003,24.12,0.8958,0.7939458223878233,24.703007562356344,181.84199840254396,230.0,5.11,,,,,-4.022718377528483,1.7744532191726623
0.0,0.0,0.0,0.0,0.0,0.0,0.0012,0.1206,0.5194,0.3254,0.0066,0.0,0.0,0.0,0.0,0.0,0.0,0.0,0.0,0.0,0.0,0.0,0.0068,0.0623,0.3156,1.1423,2.4797,3.3479,3.9958,5.7213,9.2193,12.4786,10.3823,3.2837,0.2075,0.0024,53.61870000000001,1.0172,10.89,0.075,0.9927,0.03,-5.0,2021.0,7.0,9.0,12.0,23.0,12.0,7/9/2021,12:23:12 PM,7/09/2021 12:23:12,6.554,183.89,53.6186,47.0,2370.0,2718.0,3222.0,0.0,23219.0,36638.0,0.0,0.866,5.767,12:23:12 PM,51.17121207,2.628662,2.9,RTK       ,,,,,,,2021-07-09 12:23:12+00:00,,,,,,,,,2021-07-09 12:23:12,4.8149999999999995,4.899723543623282,4.992044581235733,4.869723543623282,-0.03,102.90765293887559,193.39943437466258,87.38153389716891,1.6050739953550643,264.70874023500807,161.8010872961325,2.5722940196900423,0.6826398084198924,3.40218461788679,0.0,26.291,26.3545,0.9732000000000001,0.7893188431803995,24.27381701691509,184.21956214181276,230.0,5.11,,,,,-4.002838595795373,1.8028881734681255
0.0,0.0,0.0,0.0,0.0,0.0,0.0011,0.1133,0.5066,0.3316,0.007,0.0,0.0,0.0,0.0,0.0,0.0,0.0,0.0,0.0,0.0,0.0012,0.0079,0.0687,0.3304,1.1625,2.4945,3.347,3.9721,5.6645,9.1348,12.4065,10.2614,3.1766,0.1934,0.0021,53.1832,1.0186,10.89,0.075,0.9933,0.02,-5.0,2021.0,7.0,9.0,12.0,23.0,13.0,7/9/2021,12:23:13 PM,7/09/2021 12:23:13,6.554,183.47,53.1832,47.0,2372.0,2718.0,3224.0,0.0,23217.0,36566.0,0.0,0.866,5.737,12:23:13 PM,51.17120515,2.62864283,3.0,RTK       ,,,,,,,2021-07-09 12:23:13+00:00,,,,,,,,,2021-07-09 12:23:13,4.820000000000003,4.899089722560493,4.992178455975882,4.879089722560494,-0.02,102.46312674260002,193.0428311294799,87.38163807604425,1.6071570300272926,264.2682749325393,161.8051481899393,2.5791548953645904,0.6845108968871396,3.3098461442329503,0.0,26.1836,26.04,0.9596000000000001,0.7888071596338831,24.16599258543072,183.79148738190736,230.0,5.11,,,,,-3.985671419256898,1.8009913241583682
0.0,0.0,0.0,0.0,0.0,0.0,0.0,0.0659,0.4331,0.3998,0.0098,0.0,0.0,0.0,0.0,0.0,0.0,0.0,0.0,0.0,0.0,0.0011,0.0074,0.064,0.3065,1.0974,2.4165,3.327,4.0417,5.8464,9.3892,12.3299,9.4841,2.555,0.1236,0.0,51.8984,1.0186,10.89,0.075,0.9945,0.02,-5.0,2021.0,7.0,9.0,12.0,23.0,14.0,7/9/2021,12:23:14 PM,7/09/2021 12:23:14,6.554,182.03,51.8986,47.0,2375.0,2723.0,3219.0,0.0,23217.0,36634.0,0.0,0.865,5.784,12:23:14 PM,51.17119783,2.62862283,3.1,RTK       ,,,,,,,2021-07-09 12:23:14+00:00,,,,,,,,,2021-07-09 12:23:14,4.8,4.898449001222682,4.9923123307160315,4.878449001222682,-0.02,102.9520723937862,190.0112931902981,84.31247384264714,1.5887704603046562,260.8876277973751,157.93555540358892,2.534068734425217,0.6679107044843611,2.977044911770314,0.0,26.4972,24.4926,0.9086,0.7933583952443426,24.777703378247974,182.31887957880306,230.0,5.11,,,,,-4.031718231336466,1.7768699199502904
0.0,0.0,0.0,0.0,0.0,0.0,0.003,0.1743,0.5415,0.2746,0.0065,0.0,0.0,0.0,0.0,0.0,0.0,0.0,0.0,0.0,0.0,0.0013,0.0082,0.0682,0.3281,1.1634,2.5197,3.3818,3.9744,5.6022,9.0411,12.5651,11.0837,3.9179,0.3029,0.0047,54.9626,1.0158,10.89,0.075,0.9933,0.03,-5.0,2021.0,7.0,9.0,12.0,23.0,15.0,7/9/2021,12:23:15 PM,7/09/2021 12:23:15,6.554,185.68,54.9624,47.0,2376.0,2725.0,3214.0,0.0,23218.0,36639.0,0.0,0.864,5.844,12:23:15 PM,51.17119008,2.62860317,3.1,RTK       ,,,,,,,2021-07-09 12:23:15+00:00,,,,,,,,,2021-07-09 12:23:15,4.780000000000004,4.897798332217392,4.99244620545618,4.867798332217392,-0.03,103.01561730234783,196.00943109004973,90.2246497778294,1.6204321814192237,267.68781532022984,164.672198017882,2.598516830070279,0.6963786420210254,3.2220131828141643,0.0,26.0884,27.874299999999998,0.9999,0.7855694217297453,24.07039658133965,186.05220657944267,230.0,5.11,,,,,-3.981327473526496,1.8145971416491804
0.0,0.0,0.0,0.0,0.0,0.0,0.0,0.078,0.4456,0.3862,0.0111,0.0,0.0,0.0,0.0,0.0,0.0,0.0,0.0,0.0,0.0,0.0012,0.0082,0.0702,0.3275,1.138,2.4631,3.3447,3.9905,5.7254,9.3056,12.3873,9.5274,2.5663,0.1261,0.001,51.90339999999999,1.022,10.89,0.075,0.9945,0.03,-5.0,2021.0,7.0,9.0,12.0,23.0,16.0,7/9/2021,12:23:16 PM,7/09/2021 12:23:16,6.554,181.75,51.9034,47.0,2372.0,2723.0,3218.0,0.0,23218.0,36602.0,0.0,0.868,5.65,12:23:16 PM,51.17118227,2.62858333,3.2,RTK       ,,,,,,,2021-07-09 12:23:16+00:00,,,,,,,,,2021-07-09 12:23:16,4.750000000000003,4.897132602313052,4.992580080196329,4.867132602313052,-0.03,102.30208740554389,190.35281249047472,84.80918163365297,1.5935355801177515,261.00857736000313,158.70648995445924,2.551351433576503,0.6722312316582033,3.4163725651108505,0.0,26.3744,24.6081,0.9209,0.7921713247329056,24.460910921720615,182.0344611519474,230.0,5.11,,,,,-4.00702534465314,1.7847087443760812
0.0,0.0,0.0,0.0,0.0,0.0,0.0,0.0618,0.4172,0.4156,0.0125,0.0,0.0,0.0,0.0,0.0,0.0,0.0,0.0,0.0,0.0,0.0012,0.0077,0.0665,0.3172,1.1317,2.4745,3.3478,3.9844,5.7195,9.2737,12.2685,9.3875,2.5086,0.1193,0.0,51.5152,1.0234,10.89,0.075,0.9939,0.01,-5.0,2021.0,7.0,9.0,12.0,23.0,17.0,7/9/2021,12:23:17 PM,7/09/2021 12:23:17,6.554,181.55,51.5152,47.0,2371.0,2719.0,3226.0,0.0,23216.0,36687.0,0.0,0.87,5.573,12:23:17 PM,51.17117438,2.628563,3.2,RTK       ,,,,,,,2021-07-09 12:23:17+00:00,,,,,,,,,2021-07-09 12:23:17,4.795000000000003,4.896450169628249,4.992713954936478,4.886450169628249,-0.01,102.22262358671618,189.89147025067746,84.74282855136013,1.594266995729971,260.70688960541565,158.4842660186995,2.55038347146565,0.6728932611722578,3.0030807090579175,0.0,26.324199999999998,24.2839,0.9071,0.7919895882527276,24.455499888295783,181.8382950622242,230.0,5.11,,,,,-3.998611886676308,1.7796253099014856
0.0,0.0,0.0,0.0,0.0,0.0,0.0033,0.1589,0.5168,0.2838,0.0078,0.0,0.0,0.0,0.0,0.0,0.0,0.0,0.0,0.0,0.0,0.0015,0.0093,0.075,0.3465,1.199,2.5448,3.3624,3.9364,5.5836,9.0347,12.3294,10.5082,3.4955,0.2428,0.0032,53.642900000000004,1.022,10.89,0.075,0.9933,0.03,-5.0,2021.0,7.0,9.0,12.0,23.0,18.0,7/9/2021,12:23:18 PM,7/09/2021 12:23:18,6.554,184.02,53.6428,47.0,2371.0,2718.0,3221.0,0.0,23218.0,36613.0,0.0,0.869,5.603,12:23:18 PM,51.1711669,2.62854233,3.3,RTK       ,,,,,,,2021-07-09 12:23:18+00:00,,,,,,,,,2021-07-09 12:23:18,4.855000000000005,4.895758888386467,4.992847829676626,4.865758888386467,-0.03,102.07762906659939,194.1281368962439,89.13555925078072,1.6188534473784604,265.8689483643983,163.7913192977989,2.6045760544745327,0.6949723863135451,3.278138515726358,0.0,26.0932,26.5791,0.9706,0.7859523788681462,23.95797136435793,184.36441099066053,230.0,5.11,,,,,-3.962409910472782,1.810232070041885
0.0,0.0,0.0,0.0,0.0,0.0,0.0,0.0748,0.424,0.3746,0.0121,0.0,0.0,0.0,0.0,0.0,0.0,0.0,0.0,0.0,0.0,0.0014,0.0088,0.072,0.3328,1.1668,2.5097,3.3388,3.9389,5.6836,9.3246,12.3738,9.4782,2.5359,0.123,0.0,51.773799999999994,1.0227,10.89,0.075,0.9945,0.03,-5.0,2021.0,7.0,9.0,12.0,23.0,19.0,7/9/2021,12:23:19 PM,7/09/2021 12:23:19,6.554,181.91,51.7735,47.0,2374.0,2714.0,3214.0,0.0,23218.0,36653.0,0.0,0.869,5.623,12:23:19 PM,51.17115898,2.62852183,3.2,RTK       ,,,,,,,2021-07-09 12:23:19+00:00,,,,,,,,,2021-07-09 12:23:19,4.884999999999999,4.89507101788057,4.992981704416775,4.865071017880569,-0.03,101.9990245165111,190.25170272672534,84.72360371129813,1.5932385066328179,260.8461058809331,158.84708136442202,2.5573392208148875,0.6719622534168419,2.9952453724556065,0.0,26.3774,24.5109,0.8855,0.7922451749838754,24.67497911669262,182.19555798185573,230.0,5.11,,,,,-4.001732285061491,1.773169819334654
0.0,0.0,0.0,0.0,0.0,0.0,0.0,0.0586,0.4141,0.4258,0.0129,0.0,0.0,0.0,0.0,0.0,0.0,0.0,0.0,0.0,0.0,0.0015,0.009,0.0722,0.3324,1.1771,2.5609,3.3977,3.9429,5.6096,9.2296,12.3647,9.5217,2.5346,0.1198,0.0,51.7851,1.0172,10.89,0.075,0.9939,0.01,-5.0,2021.0,7.0,9.0,12.0,23.0,20.0,7/9/2021,12:23:20 PM,7/09/2021 12:23:20,6.554,181.44,51.7852,47.0,2373.0,2716.0,3217.0,0.0,23216.0,36738.0,0.0,0.865,5.814,12:23:20 PM,51.17115085,2.6285015,3.4,RTK       ,,,,,,,2021-07-09 12:23:20+00:00,,,,,,,,,2021-07-09 12:23:20,4.835000000000002,4.89439092146834,4.993115579156925,4.8843909214683405,-0.01,101.55734813981312,190.28693723412948,85.41034334093717,1.6004799524719464,260.8739433952474,159.3165952554343,2.5687352828089263,0.6785046058741564,3.012153484628507,0.0,26.332900000000002,24.540799999999997,0.9114,0.7904508680415514,24.17981995179233,181.73048729459168,230.0,6.03,,,,,-3.9667749921956714,1.781659484003358
0.0,0.0,0.0,0.0,0.0,0.0,0.0039,0.1657,0.4983,0.2656,0.0083,0.0,0.0,0.0,0.0,0.0,0.0,0.0,0.0,0.0,0.0,0.0019,0.0109,0.0808,0.3633,1.2616,2.686,3.4873,3.9512,5.4628,8.8567,12.3347,10.8559,3.7603,0.2742,0.0038,54.3332,1.0186,10.88,0.075,0.9927,0.02,-5.0,2021.0,7.0,9.0,12.0,23.0,21.0,7/9/2021,12:23:21 PM,7/09/2021 12:23:21,6.554,184.67,54.3331,47.0,2372.0,2715.0,3221.0,0.0,23217.0,36664.0,0.0,0.867,5.713,12:23:21 PM,51.17114318,2.62847983,3.4,RTK       ,,,,,,,2021-07-09 12:23:21+00:00,,,,,,,,,2021-07-09 12:23:21,4.834999999999999,4.893714323884716,4.993249453897073,4.873714323884716,-0.02,101.41418258655557,195.1626555687648,91.40680542271534,1.637412196597386,267.05303694413476,165.6388543575792,2.63329082908309,0.7114175466929651,3.263438071110224,0.0,26.1625,27.2289,0.9418,0.7814856172305575,23.893690581676864,185.03216998983365,230.0,5.11,,,,,-3.9177827008395436,1.8020209701297987
0.0,0.0,0.0,0.0,0.0,0.0,0.0,0.0553,0.372,0.3899,0.0143,0.0,0.0,0.0,0.0,0.0,0.0,0.0,0.0,0.0,0.0,0.0026,0.0135,0.0943,0.3872,1.2687,2.6296,3.3851,3.8769,5.5504,9.2316,12.3574,9.4457,2.4781,0.1156,0.0,51.6682,1.0193,10.89,0.075,0.9939,0.03,-5.0,2021.0,7.0,9.0,12.0,23.0,22.0,7/9/2021,12:23:22 PM,7/09/2021 12:23:22,6.554,181.62,51.6681,47.0,2373.0,2714.0,3217.0,0.0,23218.0,36622.0,0.0,0.866,5.733,12:23:22 PM,51.1711351,2.62845883,3.4,RTK       ,,,,,,,2021-07-09 12:23:22+00:00,,,,,,,,,2021-07-09 12:23:22,4.804999999999998,4.893036432874442,4.993383328637222,4.863036432874441,-0.03,100.60493984600444,189.993588244032,85.53558217662243,1.6032827593145846,260.5467902177066,159.94185037170215,2.5898011630097337,0.6810288855588968,3.023876391883603,0.0,26.4399,24.3968,0.8315,0.7897596455500325,24.457744824391437,181.90207472897225,230.0,6.03,,,,,-3.9281070814498347,1.7567838164612886
0.0,0.0,0.0,0.0,0.0,0.0,0.0023,0.1192,0.4599,0.3017,0.0097,0.0,0.0,0.0,0.0,0.0,0.0,0.0,0.0,0.0,0.0,0.002,0.011,0.0814,0.3558,1.2364,2.6799,3.5174,3.9859,5.5562,9.0862,12.3269,9.9799,2.9369,0.1651,0.0016,52.815400000000004,1.0172,10.89,0.075,0.9951,0.02,-5.0,2021.0,7.0,9.0,12.0,23.0,23.0,7/9/2021,12:23:23 PM,7/09/2021 12:23:23,6.554,182.33,52.8155,47.0,2371.0,2726.0,3222.0,0.0,23217.0,36595.0,0.0,0.864,5.861,12:23:23 PM,51.17112675,2.62843717,3.5,RTK       ,,,,,,,2021-07-09 12:23:23+00:00,,,,,,,,,2021-07-09 12:23:23,4.755000000000001,4.892350731595941,4.993517203377371,4.872350731595941,-0.02,101.1047879443725,191.45709305323072,87.79088014016915,1.6189485953249918,262.97746895244256,161.87268100807006,2.6010387272374462,0.6950571780758832,3.360862513481767,0.0,26.5122,25.4104,0.8928,0.7859292827507257,24.293337750039026,182.63876510888872,230.0,5.11,,,,,-3.943402869552801,1.782126569203457
0.0,0.0,0.0,0.0,0.0,0.0,0.0012,0.0924,0.4305,0.3223,0.0101,0.0,0.0,0.0,0.0,0.0,0.0,0.0,0.0,0.0,0.0,0.0024,0.0125,0.0879,0.3705,1.2644,2.7069,3.5131,3.9514,5.4685,8.9097,12.1477,9.9477,2.8939,0.1533,0.0013,52.2877,1.0193,10.88,0.075,0.9945,0.03,-5.0,2021.0,7.0,9.0,12.0,23.0,24.0,7/9/2021,12:23:24 PM,7/09/2021 12:23:24,6.554,182.32,52.2877,47.0,2372.0,2729.0,3224.0,0.0,23219.0,36662.0,0.0,0.866,5.757,12:23:24 PM,51.171119,2.62841567,3.3,RTK       ,,,,,,,2021-07-09 12:23:24+00:00,,,,,,,,,2021-07-09 12:23:24,4.795,4.891652068408806,4.993651078117519,4.861652068408806,-0.03,100.5419277838517,191.37805346030927,88.46898083247495,1.6261319946644908,262.9350760161857,162.393148232334,2.615178381912987,0.7014443670802617,3.386331779183111,0.0,26.287300000000002,25.1439,0.8565,0.7841914494774017,24.1886218353321,182.63163862583355,230.0,5.11,,,,,-3.9054983995524597,1.7720993919323833
0.0,0.0,0.0,0.0,0.0,0.0,0.0115,0.3378,0.533,0.1594,0.0038,0.0,0.0,0.0,0.0,0.0,0.0,0.0,0.0,0.0,0.0,0.0025,0.0127,0.0852,0.3793,1.3218,2.847,3.6967,4.073,5.3665,8.3861,11.8782,11.9987,5.7456,0.7439,0.0248,57.60749999999999,1.0199,10.89,0.075,0.9951,0.01,-5.0,2021.0,7.0,9.0,12.0,23.0,25.0,7/9/2021,12:23:25 PM,7/09/2021 12:23:25,6.554,188.09,57.6078,47.0,2377.0,2721.0,3212.0,0.0,23216.0,36669.0,0.0,0.866,5.754,12:23:25 PM,51.17111095,2.62839433,3.5,RTK       ,,,,,,,2021-07-09 12:23:25+00:00,,,,,,,,,2021-07-09 12:23:25,4.766,4.890940959576843,4.993784952857668,4.880940959576844,-0.01,101.29953899762296,199.3498805213416,99.83145440835932,1.6928909301138029,279.2017155430544,177.90217654543142,2.756199271051036,0.7594890260080067,3.181425741404925,0.0,26.1708,30.391199999999998,1.0454999999999999,0.7685736853769775,22.81870169083206,188.5738016579558,273.0,5.11,,,,,-3.8179350687136586,1.848198816486731
0.0,0.0,0.0,0.0,0.0,0.0,0.0099,0.2247,0.485,0.1927,0.0054,0.0,0.0,0.0,0.0,0.0,0.0,0.0,0.0,0.0,0.0,0.0025,0.0133,0.0909,0.3872,1.319,2.8083,3.6301,4.0451,5.4938,8.758,12.0981,10.8635,3.9555,0.3153,0.0051,54.703399999999995,1.0179,10.89,0.075,0.9933,0.01,-5.0,2021.0,7.0,9.0,12.0,23.0,26.0,7/9/2021,12:23:26 PM,7/09/2021 12:23:26,6.554,184.32,54.7035,46.0,2373.0,2719.0,3219.0,0.0,23216.0,36618.0,0.0,0.866,5.763,12:23:26 PM,51.17110198,2.628372,3.6,RTK       ,,,,,,,2021-07-09 12:23:26+00:00,,,,,,,,,2021-07-09 12:23:26,4.796000000000001,4.890218584126816,4.993918827597817,4.880218584126816,-0.01,100.58139908123937,194.57569324392887,93.42580861529001,1.6581750516055058,267.9036015546777,167.32220247343835,2.663550159391724,0.7295963185056755,3.1882035791301977,0.0,26.5482,27.2375,0.9177000000000001,0.7765775147462002,23.876050486474597,184.69379135619067,230.0,5.11,,,,,-3.8835290235473456,1.801086371689499
0.0,0.0,0.0,0.0,0.0,0.0,0.0086,0.2056,0.4814,0.2055,0.006,0.0,0.0,0.0,0.0,0.0,0.0,0.0,0.0,0.0,0.0,0.003,0.0154,0.1019,0.4119,1.3346,2.7447,3.5176,3.9776,5.5163,8.8908,12.1332,10.6031,3.6926,0.2746,0.004,54.12839999999999,1.0186,10.89,0.075,0.9951,0.02,-5.0,2021.0,7.0,9.0,12.0,23.0,27.0,7/9/2021,12:23:27 PM,7/09/2021 12:23:27,6.554,183.76,54.1284,47.0,2369.0,2717.0,3225.0,0.0,23217.0,36525.0,0.0,0.865,5.807,12:23:27 PM,51.17109323,2.62835067,3.4,RTK       ,,,,,,,2021-07-09 12:23:27+00:00,,,,,,,,,2021-07-09 12:23:27,4.836,4.88948969729675,4.9940527023379655,4.869489697296751,-0.02,100.34009970658431,193.69743495063256,91.72949095113628,1.6451734631211603,266.711776182709,166.3716764761247,2.6580776475469996,0.7182397062651384,3.2308096911192132,0.0,26.5138,26.7075,0.9071,0.7796400706507892,23.922641229550855,184.11983833128576,230.0,5.11,,,,,-3.8918674978181294,1.797545504603242
0.0,0.0,0.0,0.0,0.0,0.0,0.0041,0.1405,0.4499,0.2484,0.0076,0.0,0.0,0.0,0.0,0.0,0.0,0.0,0.0,0.0,0.0,0.003,0.0149,0.0985,0.3938,1.3016,2.752,3.5607,4.0109,5.5792,9.0556,12.0077,9.5453,2.7766,0.1541,0.0015,52.1059,1.0213,10.89,0.075,0.9951,0.01,-5.0,2021.0,7.0,9.0,12.0,23.0,28.0,7/9/2021,12:23:28 PM,7/09/2021 12:23:28,6.554,180.96,52.1059,47.0,2373.0,2711.0,3218.0,0.0,23216.0,36582.0,0.0,0.867,5.7,12:23:28 PM,51.17108507,2.62832933,3.5,RTK       ,,,,,,,2021-07-09 12:23:28+00:00,,,,,,,,,2021-07-09 12:23:28,4.775999999999998,4.8887576703136935,4.994186577078115,4.878757670313694,-0.01,99.73611739247805,189.44113328963792,88.10328902713363,1.6285576936932902,262.05691721730983,162.3207998248318,2.6275026947968376,0.7035948299154815,3.3505093609913343,0.0,26.770200000000003,24.4852,0.8505,0.7836072143292923,24.277765308678546,181.2659908208979,230.0,5.11,,,,,-3.909458415785191,1.7755428875381758
0.0,0.0,0.0,0.0,0.0,0.0,0.0241,0.3166,0.4697,0.1411,0.0042,0.0,0.0,0.0,0.0,0.0,0.0,0.0,0.0,0.0,0.0011,0.004,0.0193,0.1181,0.4564,1.4266,2.88,3.642,4.0144,5.3766,8.5237,11.9348,11.4698,4.8621,0.5061,0.0122,56.20289999999999,1.0186,10.88,0.075,0.9951,0.02,-5.0,2021.0,7.0,9.0,12.0,23.0,29.0,7/9/2021,12:23:29 PM,7/09/2021 12:23:29,6.554,185.8,56.2031,47.0,2371.0,2718.0,3219.0,0.0,23217.0,36565.0,0.0,0.865,5.807,12:23:29 PM,51.17107657,2.6283065,3.7,RTK       ,,,,,,,2021-07-09 12:23:29+00:00,,,,,,,,,2021-07-09 12:23:29,4.764000000000003,4.888017138229439,4.994320451818264,4.8680171382294395,-0.02,99.57291338973539,196.8524147996575,97.52600452432068,1.6853572200280034,272.0231394786564,172.450226088921,2.7318989694912177,0.7530544103641121,3.1478726147157694,0.0,26.4622,28.785,0.9557,0.7702895693976173,23.191428735630804,186.22237882786047,230.0,5.11,,,,,-3.814446194392503,1.824254207222243
0.0,0.0,0.0,0.0,0.0,0.0,0.0109,0.2118,0.455,0.1855,0.0059,0.0,0.0,0.0,0.0,0.0,0.0,0.0,0.0,0.0,0.0013,0.0043,0.0206,0.1257,0.4683,1.4277,2.8448,3.5733,3.9458,5.3501,8.5767,11.8568,10.663,3.8541,0.2988,0.0045,53.88490000000001,1.022,10.89,0.075,0.9933,0.03,-5.0,2021.0,7.0,9.0,12.0,23.0,30.0,7/9/2021,12:23:30 PM,7/09/2021 12:23:30,6.554,183.63,53.8846,47.0,2375.0,2719.0,3216.0,0.0,23218.0,36498.0,0.0,0.869,5.603,12:23:30 PM,51.17106808,2.62828333,3.5,RTK       ,,,,,,,2021-07-09 12:23:30+00:00,,,,,,,,,2021-07-09 12:23:30,4.804000000000002,4.8872657843330005,4.9944543265584125,4.857265784333,-0.03,98.7702625584419,193.99514016800387,94.22158290061958,1.6690890739229607,267.6509704938525,168.8807079354106,2.709833542615974,0.739060948755561,3.0980066785664087,0.0,26.3386,26.6772,0.8691,0.774034365547461,23.503117884766144,184.00375408168355,230.0,5.11,,,,,-3.8111586698522695,1.7941935005501892
0.0,0.0,0.0,0.0,0.0,0.0,0.0162,0.2498,0.4542,0.1617,0.0051,0.0,0.0,0.0,0.0,0.0,0.0,0.0,0.0,0.0,0.0011,0.0037,0.0184,0.1179,0.4662,1.4656,2.9051,3.5884,3.9532,5.4085,8.6844,11.9492,10.8125,4.0558,0.344,0.0061,54.667100000000005,1.0186,10.89,0.075,0.9939,0.03,-5.0,2021.0,7.0,9.0,12.0,23.0,31.0,7/9/2021,12:23:31 PM,7/09/2021 12:23:31,6.554,183.94,54.6671,47.0,2374.0,2719.0,3217.0,0.0,23218.0,36351.0,0.0,0.866,5.76,12:23:31 PM,51.17106035,2.62826067,3.4,RTK       ,,,,,,,2021-07-09 12:23:31+00:00,,,,,,,,,2021-07-09 12:23:31,4.864000000000004,4.88651183851389,4.994588201298561,4.85651183851389,-0.03,98.67159801608095,194.37850713314555,94.61615133248802,1.6705091033517192,268.447817735546,169.77621971946502,2.7206189332394906,0.7402878445852421,3.2036138282339026,0.0,26.6125,27.1676,0.887,0.773705308596891,23.534303104447748,184.31606905425426,230.0,5.11,,,,,-3.818058653973626,1.799853115950133
0.0,0.0,0.0,0.0,0.0,0.0,0.0168,0.2497,0.4486,0.1585,0.005,0.0,0.0,0.0,0.0,0.0,0.0,0.0,0.0,0.0,0.0012,0.0039,0.0189,0.1181,0.4628,1.47,2.9566,3.6572,3.9786,5.3561,8.5253,11.7581,10.7379,4.0608,0.3454,0.006,54.335499999999996,1.0206,10.88,0.075,0.9951,0.03,-5.0,2021.0,7.0,9.0,12.0,23.0,32.0,7/9/2021,12:23:32 PM,7/09/2021 12:23:32,6.554,183.56,54.3352,47.0,2370.0,2723.0,3222.0,0.0,23218.0,36250.0,0.0,0.867,5.727,12:23:32 PM,51.1710521,2.62823833,3.6,RTK       ,,,,,,,2021-07-09 12:23:32+00:00,,,,,,,,,2021-07-09 12:23:32,4.823999999999998,4.885762862438195,4.99472207603871,4.855762862438195,-0.03,98.26819487293967,194.01076573621256,95.65911205258303,1.682483871939096,268.58557148171775,170.3173766087781,2.7331892259646944,0.7505926754239987,3.2039861535829046,0.0,26.5487,26.9082,0.8786,0.7709470395617161,23.36600810323181,183.93916971864437,230.0,5.11,,,,,-3.792387578910118,1.8006123162753929
0.0,0.0,0.0,0.0,0.0,0.0,0.0071,0.1609,0.4268,0.2101,0.0074,0.0,0.0,0.0,0.0,0.0,0.0,0.0,0.0,0.0,0.0014,0.0043,0.0209,0.1299,0.4866,1.4911,2.9169,3.5448,3.8746,5.3401,8.6749,11.7214,9.8364,3.11,0.1913,0.002,52.158899999999996,1.022,10.89,0.075,0.9933,0.03,-5.0,2021.0,7.0,9.0,12.0,23.0,33.0,7/9/2021,12:23:33 PM,7/09/2021 12:23:33,6.554,181.16,52.159,47.0,2374.0,2725.0,3222.0,0.0,23218.0,36408.0,0.0,0.869,5.603,12:23:33 PM,51.17104355,2.62821517,3.7,RTK       ,,,,,,,2021-07-09 12:23:33+00:00,,,,,,,,,2021-07-09 12:23:33,4.811999999999998,4.885016977494133,4.994855950778859,4.855016977494133,-0.03,97.25695710245408,190.47816660080557,91.82115518780603,1.6625866115630232,264.0520475341133,166.79509043165922,2.714993923323666,0.7334294990004091,3.197130693542088,0.0,26.4855,24.861099999999997,0.8123,0.7755465326986367,23.53360986382119,181.49127391148986,230.0,5.11,,,,,-3.7862321244984036,1.7761040233130962
0.0,0.0,0.0,0.0,0.0,0.0,0.0118,0.2008,0.4417,0.1859,0.0063,0.0,0.0,0.0,0.0,0.0,0.0,0.0,0.0,0.0,0.0013,0.0042,0.0206,0.129,0.4937,1.5286,2.9861,3.6149,3.9353,5.3755,8.6195,11.6666,10.0806,3.4116,0.235,0.0029,52.9519,1.0179,10.88,0.075,0.9945,0.03,-5.0,2021.0,7.0,9.0,12.0,23.0,34.0,7/9/2021,12:23:34 PM,7/09/2021 12:23:34,6.554,181.27,52.952,47.0,2377.0,2719.0,3214.0,0.0,23219.0,36469.0,0.0,0.865,5.811,12:23:34 PM,51.1710348,2.628192,3.6,RTK       ,,,,,,,2021-07-09 12:23:34+00:00,,,,,,,,,2021-07-09 12:23:34,4.887000000000004,4.884274968853441,4.994989825519007,4.85427496885344,-0.03,96.96960315914889,190.96356869025792,93.78319407094,1.678853731925097,265.46723565789483,168.49763249874593,2.737633516166953,0.7474765427118246,3.14183132747428,0.0,26.7087,25.396700000000003,0.8465,0.7717800884504381,23.24841139358295,181.60850135706806,230.0,5.11,,,,,-3.7699702431071627,1.7905126080696763
0.0,0.0,0.0,0.0,0.0,0.0,0.021,0.2647,0.4402,0.1472,0.0048,0.0,0.0,0.0,0.0,0.0,0.0,0.0,0.0,0.0,0.0015,0.005,0.0237,0.1417,0.5235,1.5488,2.9281,3.5126,3.8406,5.2838,8.5598,11.8291,10.7194,4.0457,0.3404,0.0058,54.187400000000004,1.0193,10.87,0.075,0.9933,0.03,-5.0,2021.0,7.0,9.0,12.0,23.0,35.0,7/9/2021,12:23:35 PM,7/09/2021 12:23:35,6.554,183.45,54.1874,47.0,2369.0,2721.0,3221.0,0.0,23218.0,36388.0,0.0,0.867,5.71,12:23:35 PM,51.17102602,2.62817,3.6,RTK       ,,,,,,,2021-07-09 12:23:35+00:00,,,,,,,,,2021-07-09 12:23:35,4.802,4.883540165751627,4.995123700259157,4.853540165751626,-0.03,97.36175276610679,194.41746671661704,95.1998888433412,1.676972711063894,268.55444027084513,171.19268750473833,2.758315587394944,0.7458592124961081,3.2114158350582374,0.0,26.3691,26.9404,0.8779,0.7722128109303915,23.170376107575624,183.83365614921826,230.0,5.11,,,,,-3.777411294585801,1.8053449483787327
0.0,0.0,0.0,0.0,0.0,0.0,0.0243,0.2788,0.4384,0.1385,0.0044,0.0,0.0,0.0,0.0,0.0,0.0,0.0,0.0,0.0,0.0016,0.0052,0.0237,0.1387,0.5082,1.517,2.9263,3.5678,3.9139,5.3269,8.4848,11.5795,10.5085,4.0525,0.3551,0.0063,53.8004,1.0227,10.89,0.075,0.9945,0.04,-5.0,2021.0,7.0,9.0,12.0,23.0,36.0,7/9/2021,12:23:36 PM,7/09/2021 12:23:36,6.554,182.9,53.8004,47.0,2371.0,2722.0,3222.0,0.0,23220.0,36343.0,0.0,0.869,5.623,12:23:36 PM,51.17101722,2.62814683,3.8,RTK       ,,,,,,,2021-07-09 12:23:36+00:00,,,,,,,,,2021-07-09 12:23:36,4.826999999999998,4.882808318764271,4.995257574999306,4.842808318764271,-0.04,97.39578609871946,193.47679395235892,95.80303342521503,1.6853510017985118,268.73188093671564,171.3360948379962,2.7591735916000673,0.7530490874418891,3.202922551429953,0.0,26.414099999999998,26.5019,0.8844,0.7702909904170055,23.070908858612235,183.27834631213383,230.0,5.11,,,,,-3.7720208391251044,1.8110141163048727
0.0,0.0,0.0,0.0,0.0,0.0,0.009,0.1764,0.4186,0.1869,0.0065,0.0,0.0,0.0,0.0,0.0,0.0,0.0,0.0,0.0,0.0017,0.0051,0.0239,0.1482,0.5484,1.5945,2.9159,3.4058,3.7336,5.2696,8.7131,11.8263,9.8685,3.1548,0.1985,0.0021,52.2074,1.0193,10.87,0.075,0.9927,0.02,-5.0,2021.0,7.0,9.0,12.0,23.0,37.0,7/9/2021,12:23:37 PM,7/09/2021 12:23:37,6.554,181.37,52.2073,47.0,2376.0,2714.0,3216.0,0.0,23217.0,36411.0,0.0,0.867,5.686,12:23:37 PM,51.17100902,2.62812283,3.6,RTK       ,,,,,,,2021-07-09 12:23:37+00:00,,,,,,,,,2021-07-09 12:23:37,4.841999999999999,4.8820783214122185,4.995391449739454,4.862078321412219,-0.02,96.31357020431655,191.1008056026667,91.43373158259351,1.6565941674516367,264.2974714630494,167.98390125873289,2.744135337340077,0.7282202143178997,3.1835081417549023,0.0,26.3598,25.0502,0.7974,0.7769479694895038,23.42019305196731,181.70066248545817,230.0,5.11,,,,,-3.7641962144191345,1.7755721886914209
0.0,0.0,0.0,0.0,0.0,0.0,0.0398,0.3314,0.416,0.1111,0.0037,0.0,0.0,0.0,0.0,0.0,0.0,0.0,0.0,0.0,0.0022,0.0064,0.028,0.1586,0.5748,1.6399,2.9475,3.4053,3.6956,5.1203,8.3653,11.7653,11.1732,4.7144,0.479,0.0105,54.988299999999995,1.0206,10.89,0.075,0.9933,0.03,-5.0,2021.0,7.0,9.0,12.0,23.0,38.0,7/9/2021,12:23:38 PM,7/09/2021 12:23:38,6.554,185.01,54.9882,47.0,2371.0,2714.0,3215.0,0.0,23218.0,36365.0,0.0,0.868,5.656,12:23:38 PM,51.17100122,2.62809967,3.6,RTK       ,,,,,,,2021-07-09 12:23:38+00:00,,,,,,,,,2021-07-09 12:23:38,4.856999999999999,4.881354581629831,4.995525324479603,4.851354581629831,-0.03,96.66227053362704,196.78174080046918,97.7203582854525,1.6893931491322585,271.7677075821065,175.10543704847944,2.8115179385069737,0.7565051057003829,3.1553634280461367,0.0,25.9439,28.1424,0.9019999999999999,0.7693689154185698,22.77085660915058,185.4348279187313,230.0,5.11,,,,,-3.7441346373355326,1.8237431404292557
0.0,0.0,0.0,0.0,0.0,0.0,0.0485,0.3572,0.395,0.0926,0.0028,0.0,0.0,0.0,0.0,0.0,0.0,0.0,0.0,0.0,0.0024,0.0071,0.0302,0.1685,0.6033,1.6956,2.9949,3.3911,3.6179,4.9918,8.2209,11.7202,11.3501,5.0002,0.5424,0.0129,55.2456,1.022,10.88,0.075,0.9927,0.02,-5.0,2021.0,7.0,9.0,12.0,23.0,39.0,7/9/2021,12:23:39 PM,7/09/2021 12:23:39,6.554,185.67,55.2456,47.0,2369.0,2724.0,3225.0,0.0,23217.0,36233.0,0.0,0.87,5.579,12:23:39 PM,51.1709927,2.62807583,3.8,RTK       ,,,,,,,2021-07-09 12:23:39+00:00,,,,,,,,,2021-07-09 12:23:39,4.807000000000002,4.8806368335209855,4.995659199219752,4.860636833520986,-0.02,96.11072275461305,197.77437808093018,99.12606551712426,1.6986835465957328,273.2894752192148,177.17875246460176,2.843485798322099,0.7644171130988955,3.117989532336471,0.0,25.7237,28.6258,0.8961,0.7672621242755526,22.601636935346907,186.10499054573083,230.0,5.11,,,,,-3.717274115839814,1.8275713311958421
1.7607,0.0437,0.005,0.0,0.0,0.0045,0.0504,0.1343,0.0527,0.0143,0.0034,0.0,0.0,0.0,0.0,0.0,0.002,0.0051,0.0137,0.0254,0.0469,0.0822,0.1526,0.3639,0.9448,2.1385,3.3434,3.5522,3.4633,4.0794,5.799,8.5817,12.7896,16.5631,13.4477,7.2002,84.66369999999999,1.0158,10.87,0.075,0.9945,0.01,-5.0,2021.0,7.0,9.0,12.0,23.0,40.0,7/9/2021,12:23:40 PM,7/09/2021 12:23:40,6.554,217.83,84.6637,47.0,2375.0,2724.0,3222.0,0.0,23216.0,34778.0,0.0,0.863,5.891,12:23:40 PM,51.17098412,2.62805183,3.7,RTK       ,,,,,,,2021-07-09 12:23:40+00:00,,,,,,,,,2021-07-09 12:23:40,4.833500000000004,4.879921551738479,4.9957930739599,4.8699215517384795,-0.01,97.36121578643211,254.8939718539322,153.01559030290082,1.9040616589405015,379.68857762377775,282.3273618373456,3.89979289552678,0.929080197977455,2.7745496059645824,1.8138999999999998,24.0104,58.5823,0.2571,0.7247020603220046,21.987425866891943,219.20435481453606,324.0,119.0,4.33,,,,-3.9795029005669993,2.532647486111992
1.7294,0.2511,0.0635,0.0138,0.0036,0.0016,0.0013,0.0,0.0,0.0,0.0,0.0,0.0,0.0,0.0,0.0,0.0,0.0013,0.0059,0.014,0.0334,0.0715,0.1417,0.3517,0.9399,2.1287,3.2656,3.4031,3.3378,4.0754,6.0645,9.2127,13.4354,15.9979,11.0889,4.6883,80.32199999999999,1.022,10.89,0.075,0.9933,0.02,-5.0,2021.0,7.0,9.0,12.0,23.0,41.0,7/9/2021,12:23:41 PM,7/09/2021 12:23:41,6.554,209.73,80.3217,46.0,2360.0,2741.0,3203.0,0.0,23217.0,29100.0,0.0,0.869,5.603,12:23:41 PM,51.17097575,2.62802867,3.7,RTK       ,,,,,,,2021-07-09 12:23:41+00:00,,,,,,,,,2021-07-09 12:23:41,4.830000000000005,4.8792088261417215,4.995926948700049,4.859208826141722,-0.02,95.94412348118263,245.30312389070986,143.28892271921006,1.8625481339904317,366.1478272596749,270.20370377849224,3.8162611108900997,0.8972777097476743,2.809912031605729,2.063,23.8345,54.4232,0.0013,0.7327338372122408,21.743493961636702,210.809068618913,324.0,119.0,,,,,-4.012654385575675,2.58403503461426
0.0,0.0,0.0,0.0,0.0,0.0,0.0,0.0,0.0,0.0,0.0,0.0,0.0,0.0,0.0,0.0106,0.0304,0.1172,0.063,0.0519,0.0416,0.0523,0.0774,0.2253,0.5793,1.6346,2.752,2.5168,2.5274,4.5974,10.7186,13.675,4.5633,0.1382,0.0,0.0,44.372299999999996,1.0213,10.88,0.075,0.9945,0.03,-5.0,2021.0,7.0,9.0,12.0,23.0,42.0,7/9/2021,12:23:42 PM,7/09/2021 12:23:42,6.554,178.87,44.3724,47.0,2424.0,2729.0,3263.0,0.0,23218.0,23320.0,0.0,0.868,5.677,12:23:42 PM,51.1709673,2.62800517,3.7,RTK       ,,,,,,,2021-07-09 12:23:42+00:00,,,,,,,,,2021-07-09 12:23:42,4.780000000000001,4.878496913806821,4.996060823440198,4.84849691380682,-0.03,93.78842476832348,183.75888515665744,70.83816457174322,1.4985685200077348,232.29427555070876,138.50585078238527,2.4767904581457993,0.5835850506285016,2.1350443860108577,0.0,25.9548,18.3765,0.041,0.8168864595080726,7.616710657514089,178.97973362724733,230.0,101.0,22.7,,,,-1.7374000167196955,1.4603332692029056
0.0,0.0012,0.0073,0.0489,0.2207,0.3769,0.1646,0.0222,0.005,0.0,0.0,0.0,0.0,0.0,0.0,0.0,0.0,0.0015,0.0055,0.0116,0.0243,0.0521,0.1191,0.3421,0.9104,2.0657,3.1509,3.241,3.2201,4.1668,6.7003,10.5055,14.2471,13.628,6.188,1.34,70.7668,1.0213,10.87,0.075,0.9945,0.01,-5.0,2021.0,7.0,9.0,12.0,23.0,43.0,7/9/2021,12:23:43 PM,7/09/2021 12:23:43,6.554,212.68,70.7669,47.0,2493.0,2721.0,3308.0,0.0,23216.0,20082.0,0.0,0.868,5.677,12:23:43 PM,51.1709586,2.62798183,3.7,RTK       ,,,,,,,2021-07-09 12:23:43+00:00,,,,,,,,,2021-07-09 12:23:43,4.720000000000006,4.877775996080806,4.996194698180347,4.867775996080806,-0.01,98.55802720987857,230.05451434913857,123.15390732892956,1.7602350098003123,328.16414840162736,229.6061211917488,3.3296541914622977,0.8157680566121577,2.826936943154643,0.655,24.011400000000002,45.9086,0.1918,0.7537280411138,23.860499918176306,213.8685425675261,273.0,119.0,3.11,,,,-3.6750497801342865,1.9015435973621206
0.0,0.0,0.0,0.0,0.0,0.0079,0.132,0.2314,0.2362,0.0606,0.0017,0.0,0.0,0.0,0.0,0.0,0.0,0.0029,0.0053,0.0083,0.0127,0.0257,0.0775,0.305,0.8023,1.8299,2.8169,2.9533,3.1535,4.659,8.3838,12.4385,11.3161,4.1874,0.34,0.0053,53.99320000000001,1.0213,10.88,0.075,0.9939,0.03,-5.0,2021.0,7.0,9.0,12.0,23.0,44.0,7/9/2021,12:23:44 PM,7/09/2021 12:23:44,6.554,186.52,53.9929,47.0,2600.0,2733.0,3349.0,0.0,23218.0,14251.0,0.0,0.868,5.653,12:23:44 PM,51.17095058,2.62795767,3.8,RTK       ,,,,,,,2021-07-09 12:23:44+00:00,,,,,,,,,2021-07-09 12:23:44,4.904000000000003,4.877047300815786,4.996328572920496,4.8470473008157855,-0.03,94.18376570968405,198.36907518376708,94.15071446699883,1.6529860457672532,269.4400880474618,175.25632233777776,2.8607911991753983,0.7250745456905068,3.04281414503701,0.0079,25.0361,28.287300000000002,0.6619,0.777795464459127,23.627358350912235,186.9182122028199,230.0,5.11,,,,,-3.6805756505249776,1.7637023842529145
1.2424,0.2508,0.086,0.0288,0.0124,0.0088,0.008,0.0033,0.0,0.0,0.0,0.0,0.0,0.0,0.0,0.0,0.0022,0.008,0.0252,0.0451,0.0801,0.1346,0.2138,0.432,0.9947,2.0815,3.0794,3.1443,3.0982,3.9127,6.104,9.5412,13.8834,16.3083,11.0864,4.5653,80.3809,1.0213,10.87,0.075,0.9939,0.01,-5.0,2021.0,7.0,9.0,12.0,23.0,45.0,7/9/2021,12:23:45 PM,7/09/2021 12:23:45,6.554,215.71,80.3811,47.0,2644.0,2708.0,3343.0,0.0,23216.0,12716.0,0.0,0.868,5.653,12:23:45 PM,51.17094258,2.62793317,3.7,RTK       ,,,,,,,2021-07-09 12:23:45+00:00,,,,,,,,,2021-07-09 12:23:45,4.963999999999998,4.876333626973774,4.996462447660645,4.866333626973774,-0.01,97.17410314020539,246.62420867031875,138.70497605333657,1.8134117131910237,365.3988919402817,268.22478880007634,3.76024969752563,0.8587065087258969,2.8866842178724923,1.6292,23.3536,55.3846,0.0135,0.7425946083821068,24.1509748768073,216.9724292978028,324.0,119.0,,,,,-4.137128317174524,2.393406516484648
0.0,0.0,0.0,0.0,0.0,0.0017,0.0741,0.2526,0.2482,0.0526,0.0013,0.0,0.0,0.0,0.0,0.0,0.0011,0.0045,0.0085,0.012,0.0168,0.0316,0.0887,0.3267,0.8024,1.7491,2.6887,2.8564,3.0866,4.642,8.6077,12.7956,10.9699,3.583,0.2423,0.003,53.1471,1.0234,10.87,0.075,0.9945,0.02,-5.0,2021.0,7.0,9.0,12.0,23.0,46.0,7/9/2021,12:23:46 PM,7/09/2021 12:23:46,6.554,186.0,53.147,47.0,2631.0,2660.0,3356.0,0.0,23217.0,10574.0,0.0,0.869,5.596,12:23:46 PM,51.17093448,2.62791067,3.5,RTK       ,,,,,,,2021-07-09 12:23:46+00:00,,,,,,,,,2021-07-09 12:23:46,4.813999999999999,4.87564421364733,4.996596322400793,4.855644213647331,-0.02,94.53263306606526,197.58366205904568,90.53826021803164,1.6245841183124745,266.7330357751231,172.2004027090578,2.8215974433792987,0.7000704459944909,2.8744979774430104,0.0017,24.9217,27.5938,0.6299,0.7845649427285528,23.854330456325187,186.35929722651093,230.0,4.33,,,,,-3.692680708492439,1.7443776521625425
0.0,0.0,0.0,0.0,0.0,0.1286,0.2772,0.1069,0.0787,0.0202,0.0,0.0,0.0,0.0,0.0,0.0017,0.004,0.0132,0.0208,0.0255,0.0308,0.051,0.1219,0.3882,0.8878,1.8079,2.6606,2.8143,3.0738,4.6072,8.4266,12.8078,12.2254,5.1364,0.5509,0.0138,56.281200000000005,1.022,10.88,0.075,0.9951,0.01,-5.0,2021.0,7.0,9.0,12.0,23.0,47.0,7/9/2021,12:23:47 PM,7/09/2021 12:23:47,6.554,189.93,56.2812,47.0,2632.0,2727.0,3382.0,0.0,23216.0,13000.0,0.0,0.868,5.673,12:23:47 PM,51.17092648,2.6278875,3.8,RTK       ,,,,,,,2021-07-09 12:23:47+00:00,,,,,,,,,2021-07-09 12:23:47,4.774,4.8749616143491,4.996730197140942,4.864961614349101,-0.01,94.76308077583178,201.6290778445219,94.78181299349913,1.6404411066490432,273.6651534739167,178.9020726980849,2.887887890868485,0.7140838007014945,2.9068712925290567,0.1286,24.9296,30.7343,0.4887,0.7807638164687059,24.80162028697207,190.38188486238425,230.0,3.67,,,,,-3.7501480515340706,1.7691958571169002
0.0,0.0,0.0,0.0,0.0,0.0039,0.114,0.2546,0.216,0.0413,0.0,0.0,0.0,0.0,0.0,0.0,0.0024,0.0097,0.016,0.0195,0.0235,0.0396,0.102,0.3549,0.8415,1.7594,2.596,2.7257,3.0335,4.7002,8.7813,13.0896,11.234,3.6658,0.2507,0.0032,53.878299999999996,1.0199,10.87,0.075,0.9945,0.01,-5.0,2021.0,7.0,9.0,12.0,23.0,48.0,7/9/2021,12:23:48 PM,7/09/2021 12:23:48,6.554,186.6,53.8782,47.0,2628.0,2725.0,3385.0,0.0,23216.0,13224.0,0.0,0.867,5.73,12:23:48 PM,51.17091838,2.62786267,3.8,RTK       ,,,,,,,2021-07-09 12:23:48+00:00,,,,,,,,,2021-07-09 12:23:48,4.856000000000004,4.874276817034993,4.996864071881091,4.864276817034993,-0.01,94.55345121649852,198.2337464807202,89.39496829600648,1.6098248198740577,266.9531416855697,172.39969046907117,2.8233040492020596,0.6869037037128725,3.0615900696580263,0.0039,25.0028,28.2433,0.6283,0.7881532859123377,24.025629945410348,186.96233322537324,230.0,4.33,,,,,-3.7189299337750814,1.7479113220485358
0.0,0.0,0.0,0.0,0.0123,0.2674,0.305,0.0652,0.0222,0.0032,0.0,0.0,0.0,0.0,0.0,0.0,0.0024,0.0102,0.0237,0.033,0.0456,0.0736,0.1471,0.3982,0.9233,1.9077,2.7736,2.8592,3.0586,4.4182,7.7801,12.2336,13.9475,8.5434,1.7653,0.1203,61.7399,1.0234,10.87,0.075,0.9951,0.01,-5.0,2021.0,7.0,9.0,12.0,23.0,49.0,7/9/2021,12:23:49 PM,7/09/2021 12:23:49,6.554,198.11,61.7401,47.0,2632.0,2709.0,3348.0,0.0,23215.0,14227.0,0.0,0.869,5.62,12:23:49 PM,51.17091037,2.627839,3.5,RTK       ,,,,,,,2021-07-09 12:23:49+00:00,,,,,,,,,2021-07-09 12:23:49,4.885999999999998,4.873599432053298,4.99699794662124,4.863599432053298,-0.01,95.92981256831509,210.70455361915566,103.05258721253708,1.6706541579964191,297.3093165749103,201.37950400659525,3.099237959661243,0.7404131121045636,2.847915634195786,0.2797,24.4521,36.610099999999996,0.39799999999999996,0.7736717193635078,24.237500846477136,198.78151009494076,273.0,3.67,,,,,-3.6965163075000955,1.812200412462182
0.0,0.0,0.0,0.0,0.0065,0.2421,0.3059,0.0649,0.0216,0.0026,0.0,0.0,0.0,0.0,0.0,0.0,0.0017,0.0084,0.0211,0.0312,0.0456,0.0765,0.1565,0.4202,0.9255,1.8498,2.6808,2.831,3.0965,4.5323,8.0458,12.557,13.5614,7.2371,1.1796,0.0574,59.958999999999996,1.0206,10.88,0.075,0.9933,0.01,-5.0,2021.0,7.0,9.0,12.0,23.0,50.0,7/9/2021,12:23:50 PM,7/09/2021 12:23:50,6.554,195.02,59.959,47.0,2648.0,2689.0,3369.0,0.0,23216.0,14177.0,0.0,0.868,5.656,12:23:50 PM,51.17090245,2.62781617,3.6,RTK       ,,,,,,,2021-07-09 12:23:50+00:00,,,,,,,,,2021-07-09 12:23:50,4.845999999999999,4.872935684487752,4.997131821361389,4.862935684487752,-0.01,95.60537707129714,207.19161693356747,99.78989158097312,1.6581134446537598,289.4898878948916,193.88451082359444,3.027966593123797,0.7295427163875974,2.872011964745839,0.24860000000000002,24.7212,34.5925,0.3967,0.7765919414216622,24.70643177978106,195.6011285695096,273.0,3.67,,,,,-3.7374622170198375,1.7959229260450755
0.0,0.0,0.0,0.0,0.0086,0.2968,0.3208,0.0432,0.0086,0.0,0.0,0.0,0.0,0.0,0.0,0.0,0.0,0.004,0.0118,0.0187,0.0293,0.0542,0.1235,0.3714,0.8858,1.8615,2.7825,2.9525,3.15,4.4617,7.8428,12.4381,13.743,7.3755,1.1794,0.056,60.01970000000001,1.022,10.87,0.075,0.9939,0.01,-5.0,2021.0,7.0,9.0,12.0,23.0,51.0,7/9/2021,12:23:51 PM,7/09/2021 12:23:51,6.554,195.23,60.0199,47.0,2640.0,2705.0,3367.0,0.0,23216.0,13828.0,0.0,0.869,5.626,12:23:51 PM,51.17089443,2.62779267,3.7,RTK       ,,,,,,,2021-07-09 12:23:51+00:00,,,,,,,,,2021-07-09 12:23:51,4.806,4.87227994614598,4.997265696101538,4.86227994614598,-0.01,96.06876505072232,207.77769793568163,100.92142402980528,1.6676707245708553,290.0506638130853,193.98189876236296,3.019198421671649,0.7378344620898474,2.980150274081095,0.3054,24.5497,34.792,0.3726,0.7743634526370407,25.36764945705788,195.8185046287637,273.0,3.67,,,,,-3.824471922059067,1.8072466657339736
0.0,0.0,0.0,0.0,0.007,0.3136,0.3408,0.0362,0.0063,0.0,0.0,0.0,0.0,0.0,0.0,0.0,0.0,0.0023,0.0079,0.0136,0.0234,0.0469,0.1155,0.368,0.8841,1.847,2.7602,2.9772,3.2483,4.6254,8.0003,12.4484,13.5493,7.111,1.0935,0.049,59.8752,1.0186,10.87,0.075,0.9951,0.01,-5.0,2021.0,7.0,9.0,12.0,23.0,52.0,7/9/2021,12:23:52 PM,7/09/2021 12:23:52,6.554,194.09,59.8751,47.0,2650.0,2701.0,3354.0,0.0,23216.0,13829.0,0.0,0.865,5.807,12:23:52 PM,51.1708867,2.62776883,3.6,RTK       ,,,,,,,2021-07-09 12:23:52+00:00,,,,,,,,,2021-07-09 12:23:52,4.608999999999998,4.871612862127104,4.9973995708416865,4.861612862127104,-0.01,96.22810306517265,206.47983042925966,100.6169880822809,1.670107428116859,288.3136558913459,192.08555282617323,2.9961481802886523,0.7399409057093107,2.9479723110868976,0.3206,24.920099999999998,34.2512,0.3833,0.7737983444017575,25.593101472323404,194.65524246911787,273.0,3.67,,,,,-3.868669255693477,1.8140499897047562
0.0,0.0,0.0,0.0,0.0,0.0,0.0363,0.1157,0.0019,0.0,0.0,0.0,0.0,0.0,0.0,0.0,0.0026,0.0841,0.1041,0.0628,0.0366,0.0327,0.07,0.2731,0.7152,1.8072,2.8801,2.6756,2.6241,4.2042,9.28,15.1268,10.2476,1.2701,0.0102,0.0,51.660999999999994,1.0206,10.87,0.075,0.9945,0.01,-5.0,2021.0,7.0,9.0,12.0,23.0,53.0,7/9/2021,12:23:53 PM,7/09/2021 12:23:53,6.554,187.28,51.6609,47.0,2587.0,2708.0,3305.0,0.0,23215.0,19556.0,0.0,0.867,5.703,12:23:53 PM,51.17087913,2.62774483,3.7,RTK       ,,,,,,,2021-07-09 12:23:53+00:00,,,,,,,,,2021-07-09 12:23:53,4.638999999999999,4.870910197978649,4.997533445581835,4.860910197978649,-0.01,94.89091468931572,196.76184851767175,78.71031796457561,1.5324248922264212,255.82184092503317,160.93092623571744,2.695957160520843,0.615816365747794,2.580018672492488,0.0,24.849800000000002,26.6547,0.1565,0.807812187388668,20.2273219366963,187.535835689574,230.0,101.0,4.33,26.7,,,-2.9074151113871207,1.553879372242813
0.0,0.0,0.0,0.0,0.0,0.0,0.1081,0.3761,0.1145,0.004,0.0,0.0,0.0,0.0,0.0,0.0,0.0,0.0054,0.0122,0.0165,0.0221,0.0367,0.0946,0.3302,0.7855,1.6758,2.6108,2.9482,3.3795,5.0469,8.8143,12.5912,10.479,3.1043,0.1763,0.0018,52.734,1.0213,10.87,0.075,0.9933,0.02,-5.0,2021.0,7.0,9.0,12.0,23.0,54.0,7/9/2021,12:23:54 PM,7/09/2021 12:23:54,6.554,184.03,52.7341,47.0,2556.0,2697.0,3341.0,0.0,23217.0,19353.0,0.0,0.869,5.629,12:23:54 PM,51.17087117,2.62772117,3.6,RTK       ,,,,,,,2021-07-09 12:23:54+00:00,,,,,,,,,2021-07-09 12:23:54,4.6590000000000025,4.870165769122473,4.997667320321984,4.850165769122474,-0.02,95.12884043754025,194.94678830260412,89.12824938712075,1.6230303921391986,264.25310802185265,169.1242675843124,2.7778443089018428,0.6986900153991162,3.041718499727776,0.0,25.7787,26.3526,0.6027,0.7849403847088167,24.94476275962416,184.35798718907094,230.0,4.33,,,,,-3.7820238396706642,1.738773949492637
0.6299,0.5089,0.4215,0.315,0.188,0.0745,0.0148,0.0,0.0,0.0,0.0,0.0,0.0,0.0,0.0,0.0,0.0,0.0,0.001,0.0033,0.0106,0.0322,0.0898,0.3012,0.8919,2.0493,3.1636,3.4143,3.4849,4.2969,6.3896,9.8287,14.1309,15.2228,8.8713,3.0589,77.39379999999998,1.0206,10.87,0.075,0.9933,0.01,-5.0,2021.0,7.0,9.0,12.0,23.0,55.0,7/9/2021,12:23:55 PM,7/09/2021 12:23:55,6.554,203.74,77.3938,47.0,2553.0,2691.0,3297.0,0.0,23216.0,11896.0,0.0,0.868,5.656,12:23:55 PM,51.17086362,2.62769783,3.6,RTK       ,,,,,,,2021-07-09 12:23:55+00:00,,,,,,,,,2021-07-09 12:23:55,4.629000000000001,4.86938311501416,4.997801195062133,4.85938311501416,-0.01,95.9383908761258,237.33124232200007,136.4473222236847,1.8443078406810554,351.93911967358537,256.0007287974596,3.6683867267276127,0.8830794817742751,3.268248074890966,2.1378,24.1286,51.1126,0.0148,0.736348308833434,20.541236867671604,204.90144864798535,324.0,,,,,,-3.892749131605985,2.5181847216632267
0.0,0.0,0.0,0.0,0.0037,0.2781,0.3666,0.0389,0.0061,0.0,0.0,0.0,0.0,0.0,0.0,0.0,0.0,0.0023,0.0076,0.0122,0.0195,0.0381,0.0953,0.3194,0.7996,1.7541,2.7763,3.1634,3.5525,4.9917,8.2155,12.0994,12.4358,5.9733,0.7972,0.0289,57.7755,1.0234,10.87,0.075,0.9951,0.01,-5.0,2021.0,7.0,9.0,12.0,23.0,56.0,7/9/2021,12:23:56 PM,7/09/2021 12:23:56,6.554,190.22,57.7755,47.0,2566.0,2683.0,3357.0,0.0,23216.0,9313.0,0.0,0.869,5.62,12:23:56 PM,51.17085637,2.6276745,3.5,RTK       ,,,,,,,2021-07-09 12:23:56+00:00,,,,,,,,,2021-07-09 12:23:56,4.573999999999997,4.868557470843024,4.997935069802281,4.858557470843024,-0.01,96.52107239895693,201.61974590676402,100.01151840754912,1.6864717047307747,281.1170635164145,184.59599111745754,2.9124941997583154,0.7540081133237022,2.9815212422662287,0.2818,25.747500000000002,31.3346,0.41159999999999997,0.7700350089995189,25.9914685536598,190.7133818561715,273.0,3.67,,,,,-3.905589040279917,1.80669344557006
