Volume conc (microl/l) 1,Volume conc (microl/l) 2,Volume conc (microl/l) 3,Volume conc (microl/l) 4,Volume conc (microl/l) 5,Volume conc (microl/l) 6,Volume conc (microl/l) 7,Volume conc (microl/l) 8,Volume conc (microl/l) 9,Volume conc (microl/l) 10,Volume conc (microl/l) 11,Volume conc (microl/l) 12,Volume conc (microl/l) 13,Volume conc (microl/l) 14,Volume conc (microl/l) 15,Volume conc (microl/l) 16,Volume conc (microl/l) 17,Volume conc (microl/l) 18,Volume conc (microl/l) 19,Volume conc (microl/l) 20,Volume conc (microl/l) 21,Volume conc (microl/l) 22,Volume conc (microl/l) 23,Volume conc (microl/l) 24,Volume conc (microl/l) 25,Volume conc (microl/l) 26,Volume conc (microl/l) 27,Volume conc (microl/l) 28,Volume conc (microl/l) 29,Volume conc (microl/l) 30,Volume conc (microl/l) 31,Volume conc (microl/l) 32,Volume conc (microl/l) 33,Volume conc (microl/l) 34,Volume conc (microl/l) 35,Volume conc (microl/l) 36,TVC_recal,Laser transmission Sensor [mW],Supply voltage in calibrated units [V],External Auxiliary input 1 in calibrated units [mW],Laser Reference sensor in calibrated units [mW],Depth in calibrated units [m],Temperature in calibrated units [C],year,Month,day,hour,minute,second,DATE,TIME,DATE  & Time (format gps),External Auxiliary input 2 in calibrated units [mW],Sauter Mean Diameter [?],Total Volume Concentration [ppm],Relative Humidity [%],Accelerometer X [counts],Accelerometer Y [counts],Accelerometer Z [counts],Raw pressure (most sign bit),Raw pressure (least sign 16 bits),Ambient light (counts),Not used,Computed optical transmission over path,Beam-attenuation (c) [m-1].,Current Time,Latitude_ship,Longitude_ship,Speed over Ground,GPSfix,Row Labels,Average of Salinity,Average of Temperature_C,Average of Turbidity_NTU,Average of Depth_m,Average of Chlorohyll_ug_L,Time,VPR lat,VPR long,VPR depth,majoraxis,minoraxis,angle,devz,linename,datetime,waterniveau LAT,waterniveau LAT smooth,Sonarscope LAT correction,Lisst_depth_m_LAT,inverted Depth in calibrated units [m],D10,D50,D75-D25,D75/D25,D90,D90-D10,D90/D10,Krumbein(Qd),PSD_slope,"TVC_(0.0, 3.0]","TVC_(20.0, 200.0]","TVC_(200.0, 420.0]","TVC_(3.0, 20.0]",Trask(So),kurtosis_geom_um,mean_geom_um,mode_1,mode_2,mode_3,skewness_geom_um,sorting_geom_um
0,0,0,0.00169278,0.0104502,0.0289349,0.0345442,0.0519279,0.108506,0.210081,0.25658,0.25982,0.267913,0.305633,0.355,0.431119,0.486632,0.569684,0.591331,0.638643,0.687539,0.757569,0.875969,1.00368,1.00429,0.977736,0.95133,0.956756,1.02567,1.18683,1.47352,1.91504,2.38935,2.50277,1.78316,0.743562,24.843262980000006,1.02351,10.81,0.0768,1.07077,2.43,15.804,2020,10,5,8,3,1,10/5/2020,8:03:01 AM,10/05/2020 8:03:01,6.5535,106.852,24.8433,57,2388,2986,2992,0,23498,6,0,0.922986,3.20566,8:03:01 AM,51.29263667,2.63184,,DGPS,08:03:01,34592.12,15.82448,6.12,2.188,2.156,,,,,,,,,0001_20201005_080301,2020-10-05 08:03:01,0.5532251308900454,0.5689436147126306,,-1.8610563852873696,-2.43,17.213909973636035,130.8328220783067,205.58042945119846,5.544318945318784,325.35161100168136,308.13770102804534,18.900506131377103,2.471010253072948,3.3230671765025614,0.04107788,12.700547,9.333882000000001,2.7677560999999997,0.42469377676224307,2.739529404487957,104.70159659691907,324.0,72.2,,-0.7914403978700204,3.1481862714526128
0,0,0,0.00205348,0.0120367,0.0318567,0.0369166,0.0538837,0.110846,0.212779,0.261581,0.270386,0.282994,0.327322,0.384484,0.463819,0.51451,0.582004,0.579933,0.60263,0.624399,0.659305,0.72567,0.783789,0.743616,0.695521,0.664682,0.671692,0.738643,0.893123,1.17929,1.63489,2.1383,2.26975,1.63597,0.716194,21.50486918,1.02645,10.82,0.0768,1.07218,2.46,15.802,2020,10,5,8,3,2,10/5/2020,8:03:02 AM,10/05/2020 8:03:02,6.5535,109.184,21.5049,57,2346,3023,2973,0,23503,6,0,0.924421,3.14349,8:03:02 AM,51.29260667,2.63183,,DGPS,08:03:02,34592.0,15.82232,1.824,2.528,1.98,,,,,,,,,0001_20201005_080301,2020-10-05 08:03:02,0.5530506108202374,0.5687689557145422,,-1.8912310442854579,-2.46,14.63338147999116,131.4930257750784,219.579343475447,6.870462098955561,331.0695648051671,316.43618332517593,22.624269397873107,2.780407136226992,3.3911169185653245,0.04594688,10.144297,8.395104,2.9195213,0.38151096622837655,2.432243646911663,99.24408002564861,324.0,61.2,22.7,-0.705775802364142,3.372759351173531
0,0,0,0.00202958,0.0118554,0.0311172,0.0357828,0.0520481,0.106961,0.204929,0.250731,0.259081,0.272034,0.315524,0.371549,0.449227,0.500314,0.571716,0.57865,0.611852,0.645368,0.685693,0.751819,0.792585,0.721261,0.634838,0.563363,0.529579,0.550894,0.648568,0.867773,1.29185,1.93827,2.46923,2.11178,1.02858,20.85685208,1.03085,10.82,0.0768,1.07007,2.66,15.8,2020,10,5,8,3,3,10/5/2020,8:03:03 AM,10/05/2020 8:03:03,6.5535,102.545,20.8569,57,2371,3021,2948,0,23535,5,0,0.930223,2.89324,8:03:03 AM,51.29257667,2.63182667,,DGPS,08:03:03,34592.0,15.81864,2.016,2.784,1.99,,,,,,,,,0001_20201005_080301,2020-10-05 08:03:03,0.5528760907504293,0.5685942982211958,,-2.0914057017788044,-2.66,14.708605785097475,137.04250082422303,243.91852500797432,7.651371640100766,353.60825857192845,338.899652786831,24.040909365468117,2.93571839891489,3.3934497515132573,0.04500218,9.153959,8.83971,2.8181808999999998,0.3615183544790199,2.321165012861776,102.29230388684273,324.0,61.2,,-0.6627877338605614,3.4830283549613474
0,0,0,0.00192486,0.0113382,0.0299847,0.034598,0.0504487,0.104154,0.200532,0.246581,0.254947,0.267926,0.311166,0.368157,0.453739,0.517362,0.608588,0.634263,0.689895,0.748443,0.839966,0.99101,1.13158,1.086,0.970809,0.836973,0.733214,0.691228,0.730339,0.876183,1.16208,1.56155,1.84088,1.54582,0.756416,21.28809546,1.03012,10.82,0.0768,1.07148,2.86,15.801,2020,10,5,8,3,4,10/5/2020,8:03:04 AM,10/05/2020 8:03:04,6.5535,89.4972,21.2881,57,2383,3006,2984,0,23565,5,0,0.928339,2.97432,8:03:04 AM,51.29254667,2.63181833,,DGPS,08:03:04,34592.2,15.81692,3.8,2.96,1.69,,,,,,,,,0001_20201005_080301,2020-10-05 08:03:04,0.5527015706806213,0.5684196422330674,,-2.2915803577669323,-2.86,15.109485358108213,86.78410826109346,204.3454568577631,6.753002137046911,330.4275421223232,315.318056764215,21.868881321295675,2.7555290140668296,3.397242696409361,0.043247759999999996,11.568491,6.866746,2.8096107,0.3848146136981074,2.3484907765111234,88.10385339665993,324.0,61.2,,-0.491847740622683,3.261560967099894
0,0,0,0.00169704,0.0103451,0.0281841,0.0332501,0.0498507,0.104812,0.205125,0.254793,0.263813,0.278225,0.324174,0.383357,0.468736,0.527573,0.608847,0.61841,0.653685,0.68888,0.742142,0.835188,0.927967,0.904139,0.867471,0.843377,0.851981,0.912492,1.04283,1.26686,1.58017,1.86635,1.85429,1.31769,0.571723,21.88842704,1.02645,10.82,0.0768,1.07288,3.13,15.805,2020,10,5,8,3,5,10/5/2020,8:03:05 AM,10/05/2020 8:03:05,6.5535,96.5539,21.8884,57,2376,2968,2990,0,23608,5,0,0.923815,3.16973,8:03:05 AM,51.29251833,2.63180333,,DGPS,08:03:05,34592.56,15.81952,3.216,3.064,1.63,,,,,,,,,0001_20201005_080301,2020-10-05 08:03:05,0.5525270506108133,0.5682449877502554,,-2.5617550122497446,-3.13,15.088027506230503,107.42065201373265,196.0099825988767,6.30873064416943,315.1619566804602,300.0739291742297,20.88821461588111,2.6573497551946175,3.381050304843604,0.040226239999999996,11.764269,7.190223,2.8937087999999997,0.39813376177991766,2.451600658813841,92.14413733569585,273.0,61.2,,-0.6313487543433612,3.2248676639818834
0,0,0,0.00189195,0.0112705,0.0301582,0.0351058,0.0514161,0.10587,0.202785,0.247143,0.254121,0.266837,0.311729,0.370951,0.456144,0.513906,0.593889,0.605886,0.650962,0.697171,0.777224,0.914658,1.0624,1.06733,1.0352,0.998832,0.991995,1.03926,1.15437,1.34761,1.61302,1.84388,1.78403,1.22726,0.54518,22.809485549999998,1.02571,10.82,0.0768,1.07007,3.23,15.805,2020,10,5,8,3,6,10/5/2020,8:03:06 AM,10/05/2020 8:03:06,6.5535,96.3742,22.8095,57,2347,2995,2991,0,23624,5,0,0.925582,3.09331,8:03:06 AM,51.29249167,2.63178333,,DGPS,08:03:06,34591.84,15.82836,3.176,3.244,2.478,,,,,,,,,0001_20201005_080301,2020-10-05 08:03:06,0.5523525305410053,0.5680703347724891,,-2.661929665227511,-3.23,15.920881357305712,103.39680785747619,183.3851113598269,5.62924740426886,308.56277732293506,292.6418959656294,19.381011038144756,2.492942055750265,3.3705915084542326,0.04332065,12.936786999999999,7.01337,2.8160079,0.4214779236384783,2.5955031402909507,92.01735692775824,273.0,72.2,,-0.6550611969655339,3.1196702625465482
0,0,0,0.00138551,0.0090671,0.026455,0.032667,0.0509628,0.110061,0.220153,0.274258,0.281647,0.294797,0.342979,0.404909,0.498212,0.563745,0.658016,0.674892,0.72278,0.771256,0.845925,0.976421,1.10839,1.08163,1.01436,0.94972,0.933655,1.0142,1.25342,1.75595,2.65688,3.83797,4.3575,3.03039,1.13591,31.89056341,1.01763,10.81,0.0768,1.07007,3.46,15.807,2020,10,5,8,3,7,10/5/2020,8:03:07 AM,10/05/2020 8:03:07,6.5535,125.226,31.8906,57,2369,2953,3022,0,23659,5,0,0.918288,3.40975,8:03:07 AM,51.292465,2.631765,,DGPS,08:03:07,34591.64,15.8258,3.32,3.368,2.542,,,,,,,,,0001_20201005_080301,2020-10-05 08:03:07,0.5521780104711973,0.5678956832991362,,-2.8921043167008635,-3.46,19.583716700599897,178.54550723845185,225.4159078599016,5.208448781945153,342.82084176110146,323.23712506050157,17.505402421931482,2.380853762557343,3.2520519388679,0.03690761,13.760615,15.01865,3.0743907999999998,0.43817318972834085,2.9684480848595123,123.182692644254,324.0,61.2,,-0.9634706614187576,3.111405313703301
0,0,0,0.00138613,0.00911806,0.0260825,0.0312951,0.0480951,0.104381,0.210062,0.262228,0.269546,0.28028,0.322725,0.376873,0.457098,0.511906,0.592959,0.605665,0.649039,0.693398,0.754673,0.856488,0.934456,0.862914,0.758121,0.660771,0.606973,0.630241,0.777078,1.14644,1.92481,3.23691,4.45346,3.81144,1.68158,28.54849189,1.02792,10.82,0.0768,1.07148,3.53,15.808,2020,10,5,8,3,8,10/5/2020,8:03:08 AM,10/05/2020 8:03:08,6.5535,138.5,28.5485,57,2344,2935,2989,0,23670,5,0,0.926353,3.06001,8:03:08 AM,51.29243833,2.63174667,,DGPS,08:03:08,34592.0,15.82796,1.832,3.564,1.506,,,,,,,,,0001_20201005_080301,2020-10-05 08:03:08,0.5520034904013892,0.5677210333292112,,-2.9622789666707887,-3.53,18.857766530783582,209.45793756089736,251.56773143247483,5.784451981601088,365.7457873027476,346.888020771964,19.394968471250348,2.5321802850238564,3.2777771575482832,0.036586690000000005,10.529216,15.1082,2.8744892,0.4157850692814856,2.8745840319409446,131.03355801949235,324.0,61.2,,-0.9802249226280834,3.2731163805614156
0,0,0,0.00183761,0.0111035,0.0296638,0.0340161,0.0491083,0.10124,0.194208,0.236589,0.244113,0.257697,0.302582,0.361091,0.446632,0.505907,0.590625,0.609108,0.662789,0.718493,0.824526,1.01355,1.24645,1.31546,1.30739,1.25004,1.1995,1.21078,1.32848,1.58531,1.9813,2.32293,2.18535,1.40226,0.581122,26.11125131,1.02571,10.79,0.0768,1.07218,3.85,15.808,2020,10,5,8,3,9,10/5/2020,8:03:09 AM,10/05/2020 8:03:09,6.5535,109.615,26.1112,57,2344,2908,3010,0,23720,5,0,0.92376,3.17213,8:03:09 AM,51.29241333,2.63173167,,DGPS,08:03:09,34591.53333,15.82993333,2.2,3.7,0.54,,,,,,,,,0001_20201005_080301,2020-10-05 08:03:09,0.5518289703315812,0.5675463848613832,,-3.2824536151386168,-3.85,18.2035078888283,111.77524643397908,182.82270900508433,4.93289227217937,308.4456364191069,290.2421285302786,16.94429657749666,2.3024337811313833,3.312506871377101,0.04260491,14.862501,8.472962,2.7331833999999997,0.45024529627068816,2.841948303915541,99.37918260204628,273.0,72.2,,-0.7521939305883478,2.9872191512529147
0,0,0,0.00195639,0.0114018,0.0301984,0.0351539,0.0516131,0.106717,0.205973,0.253549,0.263714,0.278181,0.324576,0.385956,0.480859,0.554706,0.661005,0.698697,0.768706,0.843159,0.955576,1.1382,1.33427,1.34165,1.28215,1.19582,1.12366,1.09438,1.12276,1.21814,1.3781,1.51876,1.45546,1.02924,0.464876,23.609163589999998,1.02351,10.82,0.0768,1.07288,4.15,15.81,2020,10,5,8,3,10,10/5/2020,8:03:10 AM,10/05/2020 8:03:10,6.5535,89.7055,23.6092,57,2339,2891,3049,0,23768,4,0,0.92117,3.28442,8:03:10 AM,51.29238833,2.631715,,DGPS,08:03:10,,,,,,,,,,,,,,0001_20201005_080301,2020-10-05 08:03:10,0.5516544502617732,0.5673717378939843,,-3.582628262106016,-4.15,15.915563289403012,82.99153753215931,156.69750618020535,5.2564042719231585,292.58127945572306,276.66571616632007,18.383344286063135,2.394076238116387,3.395723027342725,0.04355659,14.778173,5.846436,2.940998,0.43616982820258327,2.5775891513594944,82.42862926590894,273.0,72.2,,-0.5198489982690726,3.0114368607873705
0,0,0,0.00141883,0.00936371,0.0267476,0.0318556,0.0484216,0.10488,0.210945,0.263372,0.273583,0.289082,0.339546,0.4054,0.507168,0.58612,0.700611,0.734913,0.798627,0.864914,0.96001,1.11717,1.2874,1.28729,1.25324,1.21752,1.21389,1.26285,1.37185,1.55144,1.80245,2.03773,2.01721,1.48486,0.682603,26.74448134,1.01983,10.82,0.0768,1.07218,4.4,15.811,2020,10,5,8,3,11,10/5/2020,8:03:11 AM,10/05/2020 8:03:11,6.5535,97.8637,26.7445,57,2334,2898,3073,0,23806,4,0,0.918466,3.40202,8:03:11 AM,51.29236167,2.6317,,DGPS,08:03:11,34592.0,15.83024,3.672,4.116,2.07,,,,,,,,,0001_20201005_080301,2020-10-05 08:03:11,0.5514799301919652,0.567197092425017,,-3.832802907574983,-4.4,17.05782428442872,101.72089862216221,179.9611848323539,5.4462086931495275,310.34910714566394,293.29128286123523,18.193944431058945,2.4452522660400393,3.325728289507175,0.037530140000000003,15.621725,8.024853,3.0603732,0.4285020070826606,2.59899223812183,92.86729101354425,273.0,61.2,,-0.6245604294251769,3.0451598625997374
0,0,0,0.00135466,0.0091375,0.0268877,0.0328591,0.050795,0.110278,0.221677,0.275398,0.284109,0.30047,0.356271,0.431383,0.545812,0.631971,0.751909,0.780316,0.84125,0.903816,1.00439,1.18023,1.38221,1.40086,1.36762,1.31266,1.27635,1.28743,1.36271,1.50649,1.70312,1.83347,1.6715,1.09352,0.453492,26.39174596,1.01836,10.81,0.0768,1.07218,4.63,15.812,2020,10,5,8,3,12,10/5/2020,8:03:12 AM,10/05/2020 8:03:12,6.5535,94.1323,26.3918,57,2354,2889,3066,0,23842,4,0,0.917143,3.4597,8:03:12 AM,51.29233667,2.631685,,DGPS,08:03:12,34591.72,15.83244,4.368,4.4,2.128,,,,,,,,,0001_20201005_080301,2020-10-05 08:03:12,0.5513054101221571,0.5670224484521623,,-4.062977551547838,-4.63,16.263954758024603,88.63369365815541,160.53331281570644,5.285459131692475,289.6965839025301,273.4326291445055,17.812185794454106,2.40202879956354,3.3700256272749174,0.03737986,16.358241,6.755102,3.2410231,0.4349693348305944,2.565528361848661,84.82800784031184,273.0,72.2,,-0.5593780110904913,2.9954444703679304
0,0,0,0.0014405,0.00942262,0.0271426,0.0328532,0.0504149,0.108875,0.217812,0.269966,0.277896,0.292568,0.345115,0.417166,0.530363,0.620223,0.745056,0.781951,0.846513,0.913303,1.00916,1.17091,1.3488,1.34719,1.30589,1.25916,1.23752,1.26057,1.34283,1.4976,1.71614,1.88273,1.7632,1.19078,0.514811,26.33537182,1.02057,10.81,0.0768,1.07218,4.76,15.813,2020,10,5,8,3,13,10/5/2020,8:03:13 AM,10/05/2020 8:03:13,6.5535,87.1696,26.3354,57,2360,2840,3054,0,23863,4,0,0.919128,3.37321,8:03:13 AM,51.292315,2.63166667,,DGPS,08:03:13,34591.64,15.83296,3.192,4.632,1.034,,,,,,,,,0001_20201005_080301,2020-10-05 08:03:13,0.551130890052349,0.5668478059727867,,-4.193152194027213,-4.76,16.527509989043974,91.12545941960583,166.5005183300747,5.406033567184016,296.07290736427507,279.5453973752311,17.91394514724485,2.434570469893246,3.359097271832956,0.03800572,16.066453,7.067661,3.1632521000000002,0.43009127363992755,2.5554951917976183,86.62308449019388,273.0,61.2,,-0.5642953603639425,3.0147545303512158
0,0,0,0.00148819,0.00949174,0.0267685,0.0320655,0.0486482,0.103475,0.203837,0.250124,0.254482,0.263941,0.304706,0.359442,0.449757,0.523722,0.639429,0.695072,0.791516,0.898214,1.06264,1.33341,1.63481,1.67407,1.59184,1.45523,1.34361,1.31286,1.39353,1.58324,1.85133,2.05587,1.94787,1.32927,0.580876,28.006635129999996,1.02645,10.82,0.0768,1.07218,4.97,15.814,2020,10,5,8,3,14,10/5/2020,8:03:14 AM,10/05/2020 8:03:14,6.5535,97.0839,28.0066,57,2348,2820,3093,0,23895,4,0,0.924421,3.14349,8:03:14 AM,51.292295,2.63164167,,DGPS,08:03:14,34591.8,15.83228,3.544,4.728,1.36,,,,,,,,,0001_20201005_080301,2020-10-05 08:03:14,0.550956369982541,0.56667316498395,,-4.40332683501605,-4.97,19.013113687617412,94.10499051084815,164.38002964729344,4.705678907721432,299.59823573806125,280.58512205044383,15.757452496230497,2.2344028815392307,3.3087997211644895,0.03774843,17.409471,7.765216,2.7941997,0.4609871876965639,2.812847101954624,92.39199720160022,273.0,72.2,,-0.633632563041626,2.893268384324448
0,0,0,0.00161349,0.0102847,0.0289179,0.0343427,0.051269,0.10806,0.210624,0.254992,0.256957,0.265223,0.306093,0.364152,0.462676,0.545431,0.667682,0.720138,0.808431,0.903747,1.06595,1.34875,1.71559,1.85979,1.88864,1.82863,1.74096,1.68501,1.71306,1.85207,2.09964,2.29512,2.1313,1.41269,0.622084,31.259917790000003,1.01689,10.82,0.0768,1.07148,5.24,15.814,2020,10,5,8,3,15,10/5/2020,8:03:15 AM,10/05/2020 8:03:15,6.5535,103.647,31.2599,57,2342,2818,3138,0,23937,4,0,0.91642,3.4912,8:03:15 AM,51.29227667,2.63161667,,DGPS,08:03:15,34592.0,15.83328,1.504,4.924,1.956,,,,,,,,,0001_20201005_080301,2020-10-05 08:03:15,0.550781849912733,0.5664985254824131,,-4.673501474517587,-5.24,20.316422741484182,100.26952307677865,158.60372528670663,4.292360974925745,296.7983711795299,276.4819484380457,14.60879087603824,2.101771407603463,3.281700106902329,0.04081609,19.798448,8.560834,2.8598197,0.4826717501501901,3.018226330513579,96.06910997035547,273.0,85.2,,-0.714677777710578,2.813925734156368
0,0,0,0.0016743,0.010681,0.029987,0.0353807,0.0521607,0.109488,0.213103,0.25847,0.263993,0.276598,0.325605,0.393197,0.499393,0.583103,0.705685,0.754504,0.840376,0.932738,1.07441,1.31076,1.59094,1.65783,1.63491,1.5504,1.45881,1.40446,1.41486,1.48543,1.61052,1.67534,1.4905,0.962902,0.417802,27.0260107,1.01836,10.81,0.0768,1.07359,5.43,15.813,2020,10,5,8,3,16,10/5/2020,8:03:16 AM,10/05/2020 8:03:16,6.5535,92.2414,27.026,57,2380,2815,3131,0,23968,4,0,0.915941,3.51215,8:03:16 AM,51.292255,2.631595,,DGPS,08:03:16,34591.44,15.833,4.776,5.164,2.4,,,,,,,,,0001_20201005_080301,2020-10-05 08:03:16,0.550607329842925,0.566323887464645,,-4.863676112535355,-5.43,17.401545793364544,84.83855820323517,142.29040289053557,4.557509914507008,278.3406638416146,260.93911804825007,15.995168885958963,2.188245794738252,3.368739924921673,0.0423423,17.816113,6.157064,3.0104914,0.4684208188571446,2.772709760009361,83.78441024287751,273.0,72.2,,-0.5762022462652846,2.8685423230169724
0,0,0,0.00160893,0.0103062,0.0285446,0.0330405,0.0480288,0.0997936,0.191327,0.22778,0.22756,0.233401,0.267318,0.31349,0.385805,0.437479,0.516065,0.538546,0.590572,0.64444,0.745761,0.934109,1.20771,1.37311,1.50262,1.59193,1.6632,1.76205,1.95315,2.29094,2.82525,3.38861,3.3747,2.18293,0.846756,32.43793163,1.02057,10.82,0.0768,1.07288,5.55,15.813,2020,10,5,8,3,17,10/5/2020,8:03:17 AM,10/05/2020 8:03:17,6.5535,123.834,32.4379,57,2380,2783,3142,0,23986,4,0,0.918525,3.39945,8:03:17 AM,51.29223333,2.63157667,,DGPS,08:03:17,34591.92,15.83208,3.296,5.444,1.804,,,,,,,,,0001_20201005_080301,2020-10-05 08:03:17,0.5504328097731169,0.5661492509268303,,-4.983850749073169,-5.55,24.272446941612877,147.78582012821624,186.01613103399313,3.8872630468747698,320.498378130741,296.2259311891281,13.204205529903787,1.958754736589229,3.1969202835805186,0.04045973,17.314203,12.618246,2.4650229,0.5071985871058274,3.624560237274782,122.21725253386954,273.0,7.11,,-1.0668310158300036,2.7923211470473324
0,0,0,0.0018957,0.0116296,0.0307123,0.0341219,0.0474589,0.0961631,0.180445,0.213502,0.214705,0.222019,0.255114,0.30034,0.370289,0.422099,0.500483,0.526323,0.58078,0.638289,0.738748,0.91359,1.12662,1.18775,1.18381,1.15377,1.15636,1.24328,1.46464,1.85839,2.41313,2.85919,2.64086,1.60865,0.634792,26.8299495,1.03306,10.79,0.0768,1.07218,5.7,15.814,2020,10,5,8,3,18,10/5/2020,8:03:18 AM,10/05/2020 8:03:18,6.5535,121.84,26.83,57,2379,2776,3179,0,24010,4,0,0.930377,2.88662,8:03:18 AM,51.29221333,2.63156,,DGPS,08:03:18,34592.24,15.8328,2.96,5.568,1.466,,,,,,,,,0001_20201005_080301,2020-10-05 08:03:18,0.5502582897033089,0.5659746158648762,,-5.134025384135124,-5.7,21.103333154426355,141.0194613849291,189.63784999993248,4.441789371097662,314.89413974916886,293.7908065947425,14.92153573299964,2.1511409821515377,3.263009137949656,0.0442376,14.272833,10.156622,2.3562569,0.4744833963727448,3.234855300770367,113.19797345890281,273.0,72.2,,-0.949590435725362,2.914224681899811
0,0,0,0.00183277,0.0110832,0.0297483,0.0342167,0.0492322,0.101093,0.192846,0.232762,0.236996,0.246745,0.284664,0.334739,0.41498,0.478458,0.575929,0.617069,0.690089,0.769006,0.896444,1.1115,1.37194,1.44788,1.44223,1.38515,1.32302,1.29604,1.33573,1.45494,1.63456,1.74034,1.57756,1.05767,0.489324,24.865817170000003,1.02792,10.81,0.0768,1.07148,5.69,15.812,2020,10,5,8,3,19,10/5/2020,8:03:19 AM,10/05/2020 8:03:19,6.5535,93.9565,24.8658,57,2373,2811,3095,0,24008,4,0,0.926353,3.06001,8:03:19 AM,51.29219333,2.63154167,,DGPS,08:03:19,34592.33333,15.833,2.8,5.677777778,1.25,,,,,,,,,0001_20201005_080301,2020-10-05 08:03:19,0.5500837696335009,0.5657999822744197,,-5.124200017725581,-5.69,18.159420130110792,94.70800899823112,156.6310946643539,4.557967711617398,292.5790366771999,274.4196165470891,16.11169489889515,2.1883907046702458,3.3410283421269367,0.04266427,15.716967,6.499454,2.6067318999999998,0.46839729443839834,2.8765524223971144,90.5851942378962,273.0,72.2,,-0.6682650677482048,2.8995355386382875
0,0,0,0.00172383,0.0108968,0.0298101,0.0341728,0.0491807,0.101583,0.193317,0.227816,0.22437,0.226452,0.254931,0.297013,0.371881,0.437503,0.54081,0.594374,0.676638,0.767196,0.910051,1.1563,1.47566,1.60414,1.62495,1.55426,1.4579,1.41327,1.48471,1.70245,2.06671,2.34909,2.1427,1.29858,0.512229,27.79266823,1.02571,10.82,0.0768,1.07077,5.77,15.811,2020,10,5,8,3,20,10/5/2020,8:03:20 AM,10/05/2020 8:03:20,6.5535,111.783,27.7927,57,2375,2778,3128,0,24020,4,0,0.924974,3.1196,8:03:20 AM,51.29217333,2.63152167,,DGPS,08:03:20,34591.77778,15.82955556,3.266666667,5.788888889,2.183333333,,,,,,,,,0001_20201005_080301,2020-10-05 08:03:20,0.5499092495636928,0.5656253501508347,,-5.204374649849165,-5.77,21.19076942234887,107.22059954550814,167.71323838779244,4.30616867843239,299.8649184352457,278.67414901289686,14.1507329185977,2.106404832921693,3.2836581913868916,0.04243073,16.962709,8.369309,2.4182195,0.481897286817676,3.138039312646166,100.51719000729312,273.0,85.2,7.11,-0.791946051801231,2.8241927314958217
0,0,0,0.00193026,0.0116895,0.0309372,0.0346493,0.0482168,0.0974581,0.182562,0.215381,0.215734,0.22188,0.253672,0.297382,0.371201,0.432237,0.526925,0.570953,0.64501,0.725037,0.858539,1.08617,1.39825,1.5787,1.73017,1.86188,1.99248,2.12741,2.27508,2.42775,2.61989,2.72782,2.57374,1.91965,0.994485,33.054869159999996,1.02645,10.82,0.0768,1.07077,6.36,15.811,2020,10,5,8,3,21,10/5/2020,8:03:21 AM,10/05/2020 8:03:21,6.5535,125.274,33.0549,57,2402,2751,3232,0,24113,4,0,0.925636,3.09096,8:03:21 AM,51.29215667,2.63149833,,DGPS,08:03:21,34592.16,15.83008,3.72,5.78,2.41,,,,,,,,,0001_20201005_080301,2020-10-05 08:03:21,0.5497347294938848,0.5654507194892388,,-5.794549280510761,-6.36,25.17195795124517,129.8121480644918,167.86173988420867,3.731975421766215,315.67104331156224,290.49908536031705,12.540583609863655,1.899939484846489,3.1910457743710823,0.04455696,19.804354,10.835585,2.3703732,0.5176433183163561,3.6162301640918666,115.07737456243557,273.0,,,-0.9763998861729271,2.71675114622962
0,0,0,0.00156919,0.0103027,0.0297621,0.0359732,0.0544516,0.115228,0.224217,0.26779,0.266094,0.272485,0.314321,0.374852,0.47386,0.554432,0.671194,0.713443,0.78734,0.866108,0.981219,1.17231,1.37697,1.38048,1.32279,1.25089,1.21517,1.24678,1.35456,1.5183,1.6911,1.74483,1.51307,0.963585,0.402292,25.167768789999997,1.02351,10.82,0.0768,1.07077,6.25,15.811,2020,10,5,8,3,22,10/5/2020,8:03:22 AM,10/05/2020 8:03:22,6.5535,94.897,25.1678,57,2392,2821,3147,0,24096,4,0,0.922986,3.20566,8:03:22 AM,51.29213833,2.63147667,,DGPS,08:03:22,34592.24,15.83048,4.392,6.088,2.106,,,,,,,,,0001_20201005_080301,2020-10-05 08:03:22,0.5495602094240768,0.5652760902844998,,-5.6847239097155,-6.25,16.669367757738275,88.94970811494704,156.57803020645548,5.029386060938162,284.4244273471387,267.75505958940045,17.062700366371296,2.3303823004486497,3.384238990511462,0.041633989999999996,15.857554,6.314877,2.9537038,0.4459051754831223,2.6802087070067344,85.22660359390012,273.0,72.2,7.11,-0.600974730920488,2.9658034148290633
0,0,0,0.00107228,0.00783813,0.0247858,0.0317106,0.0515685,0.117255,0.246578,0.313751,0.326382,0.344439,0.407311,0.489041,0.620323,0.724036,0.87932,0.935733,1.03997,1.15243,1.32051,1.5969,1.87975,1.84438,1.68393,1.46833,1.27362,1.15124,1.12378,1.19522,1.34385,1.46081,1.36911,0.939758,0.41256,27.77729231,1.01395,10.82,0.0768,1.07288,5.88,15.811,2020,10,5,8,3,23,10/5/2020,8:03:23 AM,10/05/2020 8:03:23,6.5535,73.2223,27.7773,57,2377,2819,3054,0,24037,4,0,0.912573,3.65947,8:03:23 AM,51.29212167,2.63145333,,DGPS,08:03:23,34592.28,15.83064,3.368,6.384,1.294,,,,,,,,,0001_20201005_080301,2020-10-05 08:03:23,0.5493856893542688,0.5651014625312428,,-5.314898537468757,-5.88,15.43015000414685,69.24410254534133,126.34505679339978,4.7871282618531925,271.2025990249223,255.77244902077544,17.57614792805233,2.2591604608018994,3.4181274795330348,0.033696210000000004,18.545113,5.526088,3.6723951,0.457048689622909,2.5310248317713304,72.97674058961995,61.2,273.0,,-0.3609504882241605,2.9075951728005816
0,0,0,0.00179694,0.0112211,0.0303348,0.0343694,0.0484514,0.0983878,0.184113,0.21514,0.21106,0.213161,0.240174,0.28045,0.352204,0.415752,0.515302,0.567458,0.648623,0.738158,0.878578,1.11129,1.38427,1.45628,1.4474,1.42055,1.45768,1.62154,1.9492,2.41705,2.93424,3.11911,2.53944,1.32934,0.475538,30.347662439999997,1.02645,10.81,0.0768,1.07218,6.19,15.811,2020,10,5,8,3,24,10/5/2020,8:03:24 AM,10/05/2020 8:03:24,6.5535,119.896,30.3477,57,2373,2784,3126,0,24086,4,0,0.924421,3.14349,8:03:24 AM,51.292105,2.63143333,,DGPS,08:03:24,34593.0,15.82892,2.776,6.112,1.9,,,,,,,,,0001_20201005_080301,2020-10-05 08:03:24,0.5492111692844608,0.5649268362238571,,-5.625073163776143,-6.19,23.91872210472074,134.36484838873466,171.38250399739547,4.005385351282173,298.2088546536462,274.29013254892544,12.46759142683421,2.001941048536533,3.240458649376838,0.04335284,17.613379000000002,10.397668,2.2932626,0.4996637550312857,3.4900978079783047,112.03266374295382,273.0,72.2,7.11,-0.9869134807943681,2.7510452630550346
0,0,0,0.00183304,0.011032,0.0294383,0.0336575,0.0478842,0.0968917,0.180988,0.21119,0.207043,0.207599,0.231444,0.267455,0.331721,0.387014,0.471523,0.51083,0.571145,0.635553,0.729105,0.881346,1.06599,1.12917,1.18037,1.25277,1.38093,1.61974,2.02776,2.65179,3.44613,4.04331,3.68665,2.19739,0.854289,32.58098174,1.03012,10.82,0.0768,1.07288,6.9,15.81,2020,10,5,8,3,25,10/5/2020,8:03:25 AM,10/05/2020 8:03:25,6.5535,141.779,32.581,57,2443,2737,3303,0,24197,4,0,0.927122,3.02682,8:03:25 AM,51.29209,2.63141333,,DGPS,08:03:25,34592.32,15.8296,2.616,5.996,2.368,,,,,,,,,0001_20201005_080301,2020-10-05 08:03:25,0.5490366492146527,0.5647522113565022,,-6.335247788643498,-6.9,26.941758206909572,171.23807449489723,185.98781450936735,3.6119319140233492,320.90779633196416,293.9660381250546,11.911167558829293,1.8527706978501475,3.177443869628954,0.04230334,16.108022,14.227769,2.2028874,0.5261750153840131,3.9872891782126456,132.52393479019324,273.0,7.11,,-1.2218429672060525,2.7460080605763983
0,0,0,0.00120951,0.00837185,0.0252217,0.0313021,0.049295,0.108645,0.221009,0.275199,0.280486,0.292471,0.341198,0.405588,0.510151,0.591622,0.714401,0.758438,0.843925,0.935136,1.08036,1.32489,1.61747,1.69562,1.71122,1.71154,1.75915,1.90544,2.16847,2.5009,2.79884,2.82138,2.30813,1.32266,0.500902,33.620641160000005,1.01616,10.82,0.0768,1.07218,6.64,15.81,2020,10,5,8,3,26,10/5/2020,8:03:26 AM,10/05/2020 8:03:26,6.5535,110.622,33.6206,57,2430,2807,3189,0,24156,4,0,0.915157,3.54637,8:03:26 AM,51.29207,2.63139167,,DGPS,08:03:26,34592.2,15.82744,3.52,6.472,2.19,,,,,,,,,0001_20201005_080301,2020-10-05 08:03:26,0.5488621291448447,0.5645775879231145,,-6.075422412076885,-6.64,20.21747084865409,113.7540095800904,161.7403150781933,4.27535438182073,289.04460245810213,268.82713160944803,14.296773549068542,2.096044009169419,3.268284115161603,0.03480306,20.72696,9.751912,3.1069661,0.4836307882128107,3.0468344851491334,99.85349399701535,273.0,,,-0.8101661425918549,2.8124920078971125
0,0,0,0.00154138,0.0100424,0.0285004,0.0337473,0.050174,0.10581,0.206025,0.248854,0.25094,0.260194,0.302544,0.360992,0.452749,0.523345,0.628951,0.668286,0.747727,0.83399,0.967365,1.18466,1.39686,1.36473,1.23368,1.07769,0.970374,0.954564,1.06511,1.34237,1.85892,2.52503,2.76324,1.84315,0.695833,26.957988480000004,1.02571,10.82,0.0768,1.07148,6.29,15.81,2020,10,5,8,3,27,10/5/2020,8:03:27 AM,10/05/2020 8:03:27,6.5535,111.872,26.958,57,2385,2814,3084,0,24102,4,0,0.924366,3.14588,8:03:27 AM,51.29205167,2.63137,,DGPS,08:03:27,34592.92,15.82932,3.744,6.84,2.3,,,,,,,,,0001_20201005_080301,2020-10-05 08:03:27,0.5486876090750367,0.5644029659174137,,-5.725597034082586,-6.29,18.379084568113957,110.64399582335166,203.36493903866506,5.594828370925267,320.8660425322422,302.48695796412824,17.458216775873357,2.4840938752208266,3.3115015108402206,0.04008418,14.436357000000001,9.686173,2.7953742999999998,0.42277238870387,2.6513461508153497,100.65611226577242,324.0,61.2,,-0.6801525188061955,3.073595020359213
0,0,0,0.00140358,0.00983519,0.0288601,0.0338117,0.0493312,0.103932,0.199487,0.228549,0.218038,0.214707,0.23935,0.279907,0.355466,0.423731,0.528941,0.579903,0.65489,0.736229,0.855936,1.0595,1.32151,1.43041,1.51096,1.59494,1.71989,1.91881,2.19519,2.46463,2.62802,2.47889,1.87463,0.998475,0.411926,29.35008877,1.02571,10.82,0.0768,1.07288,6.56,15.81,2020,10,5,8,3,28,10/5/2020,8:03:28 AM,10/05/2020 8:03:28,6.5535,107.739,29.3501,57,2427,2752,3234,0,24144,4,0,0.923154,3.19837,8:03:28 AM,51.29203667,2.63135333,,DGPS,08:03:28,34592.52,15.82868,2.76,6.464,2.408,,,,,,,,,0001_20201005_080301,2020-10-05 08:03:28,0.5485130890052285,0.5642283453329091,,-5.995771654667091,-6.56,22.825240407105426,122.01621412910873,152.8665245652581,3.7550294668855773,281.8713743961816,259.04613398907617,12.349108678322438,1.9088242290612225,3.2690203467592687,0.04009887,18.571739,8.391941,2.3463099,0.516051833369471,3.5230494898383236,105.0474990192871,230.0,7.11,,-0.9709030670777667,2.716091558753763
0,0,0,0.00225525,0.0128877,0.0323843,0.0352055,0.0475841,0.0932404,0.169344,0.196412,0.195093,0.199705,0.226772,0.26415,0.324464,0.370609,0.443616,0.475516,0.541469,0.613641,0.75201,0.999892,1.34287,1.5368,1.64375,1.67389,1.66399,1.65749,1.71563,1.89785,2.23849,2.55976,2.43332,1.59969,0.691381,28.651161249999998,1.02424,10.82,0.0768,1.07218,6.75,15.808,2020,10,5,8,3,29,10/5/2020,8:03:29 AM,10/05/2020 8:03:29,6.5535,120.985,28.6512,57,2455,2754,3250,0,24173,4,0,0.922436,3.22948,8:03:29 AM,51.29202,2.631335,,DGPS,08:03:29,34591.92,15.82788,0.208,6.352,1.806,,,,,,,,,0001_20201005_080301,2020-10-05 08:03:29,0.5483385689354205,0.564053726162906,,-6.185946273837094,-6.75,24.73374024509069,124.58826817339461,171.98690782304806,3.871729608150057,311.1698055361374,286.4360652910467,12.580782463659146,1.9529782019404394,3.2245554181936025,0.04752725,16.958414,9.522641,2.122579,0.508215012912742,3.5997529208946784,112.69817863624213,273.0,101.0,7.11,-0.9640043589389722,2.7406106384120443
0,0,0,0.00187268,0.0112766,0.0299415,0.0340524,0.048629,0.0995008,0.188825,0.225899,0.228875,0.237433,0.273841,0.323448,0.403716,0.469555,0.570747,0.617696,0.697793,0.785553,0.917964,1.13024,1.35807,1.3787,1.32681,1.26097,1.23214,1.26661,1.38154,1.58258,1.84855,2.01813,1.8263,1.17542,0.499983,25.452660979999997,1.02792,10.82,0.0768,1.07148,6.36,15.808,2020,10,5,8,3,30,10/5/2020,8:03:30 AM,10/05/2020 8:03:30,6.5535,101.785,25.4527,57,2403,2772,3153,0,24113,4,0,0.926353,3.06001,8:03:30 AM,51.29200167,2.63131167,,DGPS,08:03:30,34592.0,15.82644,3.24,6.64,2.152,,,,,,,,,0001_20201005_080301,2020-10-05 08:03:30,0.5481640488656125,0.5638791084005116,,-5.796120891599489,-6.36,18.989590973922684,102.42042348466705,168.11776844357598,4.719685035789202,298.6185875393559,279.62899656543317,15.725382813638884,2.238690585759458,3.3207810997143636,0.043090779999999995,15.507413,7.368383,2.5337742,0.46030266713612805,2.8840078117565793,95.03687455932814,273.0,72.2,,-0.707657525729326,2.913467878335636
0,0,0,0.00216546,0.012591,0.0325632,0.0363541,0.0500251,0.0985655,0.179617,0.207317,0.203988,0.206087,0.230867,0.267368,0.331455,0.387958,0.479855,0.534358,0.622997,0.72393,0.872653,1.10262,1.33105,1.33163,1.24297,1.14098,1.09938,1.1603,1.35396,1.67203,2.05867,2.27778,2.02875,1.27638,0.54259,25.09980436,1.03453,10.82,0.0768,1.07077,6.32,15.808,2020,10,5,8,3,31,10/5/2020,8:03:31 AM,10/05/2020 8:03:31,6.5535,103.886,25.0998,57,2409,2743,3175,0,24107,4,0,0.932925,2.77723,8:03:31 AM,51.291985,2.631285,,DGPS,08:03:31,34592.08,15.82708,4.184,6.552,2.464,,,,,,,,,0001_20201005_080301,2020-10-05 08:03:31,0.5479895287958045,0.5637044920386406,,-5.75629550796136,-6.32,21.045985109096296,115.85677407707718,177.73405608608948,4.588698632920215,305.63966186158655,284.59367675249024,14.522468788096115,2.198085059513642,3.2959639310031683,0.04731966,14.668713,8.18417,2.1996017,0.46682621050707623,3.0952603201418407,102.86329689719146,273.0,72.2,7.11,-0.8121405853218523,2.8895415957405843
0,0,0,0.00313969,0.0160095,0.0380164,0.0410723,0.0539699,0.100533,0.173671,0.194853,0.191204,0.193894,0.219074,0.256608,0.317247,0.366395,0.438197,0.469375,0.516951,0.566724,0.641428,0.769471,0.959817,1.09286,1.22968,1.36498,1.50529,1.67271,1.89225,2.17046,2.45537,2.54757,2.27051,1.55481,0.691041,26.97518079,1.02938,10.82,0.0768,1.07218,6.46,15.808,2020,10,5,8,3,32,10/5/2020,8:03:32 AM,10/05/2020 8:03:32,6.5535,129.237,26.9752,57,2432,2703,3239,0,24129,4,0,0.927068,3.02912,8:03:32 AM,51.29197,2.63126333,,DGPS,08:03:32,34592.4,15.82832,3.776,6.332,1.764,,,,,,,,,0001_20201005_080301,2020-10-05 08:03:32,0.5478150087259965,0.5635298770700217,,-5.896470122929978,-6.46,23.446973402440175,141.15250661118174,171.7736223095331,3.716484869002814,313.1470365063489,289.70006310390875,13.355541934199449,1.8939387343558587,3.2504478714421636,0.05716559,15.290193,9.519300999999999,2.1085212,0.5187209821966319,3.7602960341336966,117.23342211439896,273.0,7.11,,-1.093201714003594,2.8001072339704964
0,0,0,0.00263479,0.0142515,0.0350261,0.0384534,0.0525022,0.101965,0.183726,0.211532,0.20966,0.213012,0.240597,0.280618,0.345023,0.395155,0.470603,0.501803,0.563163,0.629195,0.73809,0.919967,1.14343,1.233,1.28521,1.34273,1.45833,1.67684,2.038,2.53926,3.09984,3.34652,2.7808,1.54696,0.59649,30.234386989999994,1.03012,10.81,0.0768,1.07077,6.46,15.809,2020,10,5,8,3,33,10/5/2020,8:03:33 AM,10/05/2020 8:03:33,6.5535,120.35,30.2344,57,2421,2741,3226,0,24128,4,0,0.928949,2.94805,8:03:33 AM,51.291955,2.63124333,,DGPS,08:03:33,34591.92,15.828,1.512,6.348,2.424,,,,,,,,,0001_20201005_080301,2020-10-05 08:03:33,0.5476404886561885,0.5633552634872036,,-5.896644736512797,-6.46,24.44258820564517,149.6967161674489,175.10355424475026,3.760129250341058,306.90685579897746,282.4642675933323,12.556233947765621,1.9107822538234474,3.233982995012557,0.05191239,16.539621,11.37061,2.2722436,0.5157017595581863,3.7860085643948818,120.07230078374653,273.0,7.11,,-1.1254432802991121,2.766727180543774
0,0,0,0.00186502,0.0113701,0.0305018,0.0349121,0.0502527,0.103798,0.199256,0.24036,0.245152,0.255304,0.297041,0.355068,0.447682,0.521727,0.62835,0.668079,0.740081,0.816577,0.940878,1.15207,1.4206,1.52418,1.57235,1.58545,1.60317,1.64706,1.72451,1.82289,1.92064,1.89401,1.55717,0.934408,0.396441,27.343203719999998,1.02277,10.82,0.0768,1.07288,6.15,15.809,2020,10,5,8,3,34,10/5/2020,8:03:34 AM,10/05/2020 8:03:34,6.5535,95.4057,27.3432,57,2392,2781,3133,0,24080,4,0,0.920509,3.31315,8:03:34 AM,51.29193333,2.63122167,,DGPS,08:03:34,34592.2,15.82956,1.784,6.46,2.056,,,,,,,,,0001_20201005_080301,2020-10-05 08:03:34,0.5474659685863804,0.5631806512825606,,-5.58681934871744,-6.15,18.842006521046027,99.16049387729433,147.12750847942814,4.233014429249529,277.65434265944026,258.81233613839424,14.735922225125421,2.081685406438346,3.3342951363631808,0.04373692,17.846245,6.702669,2.7505528,0.4860434843355379,3.007640401814404,91.38166087617716,230.0,,,-0.736282745952668,2.8205223212139914
0,0,0,0.00223863,0.0124675,0.0313862,0.0348679,0.0481286,0.0947099,0.17296,0.201598,0.200676,0.204022,0.22935,0.265022,0.322979,0.367715,0.435882,0.462495,0.513047,0.566998,0.656748,0.812036,1.00593,1.07518,1.08916,1.07075,1.06058,1.10799,1.25819,1.54779,1.97343,2.34457,2.24859,1.44138,0.583794,23.44266073,1.03379,10.81,0.0768,1.07359,5.97,15.811,2020,10,5,8,3,35,10/5/2020,8:03:35 AM,10/05/2020 8:03:35,6.5535,116.681,23.4427,57,2395,2739,3132,0,24051,4,0,0.929818,2.91064,8:03:35 AM,51.291915,2.6312,,DGPS,08:03:35,34592.4,15.82988,3.744,6.296,2.158,,,,,,,,,0001_20201005_080301,2020-10-05 08:03:35,0.5472914485165724,0.563006040448298,,-5.406993959551702,-5.97,20.38699710613305,133.5103602105118,189.2462738476971,4.514183440532907,316.2201828745327,295.8331857683997,15.510875938634618,2.1744650457716306,3.2895259670573864,0.04609233,12.662776000000001,8.591764,2.1420284,0.47066336812652537,3.2098980126179852,110.31295723485884,273.0,85.2,7.11,-0.9264375088043884,2.9519125109273987
0,0,0,0.00209539,0.0125075,0.0330561,0.0372375,0.0515004,0.10208,0.186525,0.214663,0.209537,0.211493,0.238103,0.276558,0.34224,0.394135,0.476808,0.51612,0.589728,0.670449,0.816117,1.07254,1.42377,1.61691,1.73816,1.81511,1.89812,2.02632,2.23841,2.5567,2.96099,3.22439,2.90687,1.82756,0.72166,33.40846289,1.03306,10.82,0.0768,1.07077,6.2,15.811,2020,10,5,8,3,36,10/5/2020,8:03:36 AM,10/05/2020 8:03:36,6.5535,132.143,33.4085,57,2423,2708,3234,0,24087,4,0,0.931599,2.83409,8:03:36 AM,51.2919,2.63118,,DGPS,08:03:36,34592.48,15.83024,3.144,6.044,2.044,,,,,,,,,0001_20201005_080301,2020-10-05 08:03:36,0.5471169284467644,0.562831430976458,,-5.637168569023542,-6.2,26.97748994399905,137.02668821829027,169.8055830504062,3.643130183662604,309.23490036672837,282.2574104227293,11.46270097806173,1.8651785492856647,3.195273490077234,0.04765899,19.455262,11.64147,2.2640719000000002,0.5239171979435591,3.8577486757126205,118.78761335805804,273.0,7.11,,-1.0706821557584696,2.6802356413029673
0,0,0,0.00200681,0.0118946,0.0313787,0.035667,0.0503883,0.101488,0.189528,0.22419,0.224994,0.232187,0.26638,0.313865,0.389371,0.448106,0.532963,0.559909,0.607234,0.655576,0.736703,0.882372,1.08069,1.17811,1.2661,1.36349,1.48931,1.66612,1.91103,2.21365,2.55677,2.78393,2.59858,1.73822,0.743956,29.086157409999995,1.03306,10.82,0.0768,1.07288,6.21,15.811,2020,10,5,8,3,37,10/5/2020,8:03:37 AM,10/05/2020 8:03:37,6.5535,124.327,29.0862,57,2407,2754,3203,0,24090,4,0,0.929767,2.91286,8:03:37 AM,51.29188333,2.63115667,,DGPS,08:03:37,34592.04,15.83044,3.392,6.02,2.508,,,,,,,,,0001_20201005_080301,2020-10-05 08:03:37,0.5469424083769563,0.5626568228589252,,-5.6473431771410745,-6.21,21.683634797371912,140.03680447144575,180.1390524358329,4.0837753625747935,315.02026977099416,293.33663497362227,14.528019527850335,2.0299035096504223,3.2451694905565964,0.04528011,16.143257,10.421456000000001,2.4761643,0.49484487604181826,3.404989538853356,114.56269177232105,273.0,,,-0.9998208477491344,2.860049534585693
0,0,0,0.00158487,0.0101998,0.0287005,0.0338681,0.0502523,0.106021,0.207124,0.251859,0.256344,0.266972,0.310924,0.371481,0.471189,0.553963,0.677858,0.732157,0.823511,0.922528,1.0766,1.32907,1.62525,1.69987,1.69544,1.65195,1.62713,1.66762,1.80293,2.03102,2.32199,2.52632,2.41649,1.78798,0.903709,32.23990557,1.01836,10.82,0.0768,1.07359,5.88,15.811,2020,10,5,8,3,38,10/5/2020,8:03:38 AM,10/05/2020 8:03:38,6.5535,102.246,32.2399,57,2376,2791,3135,0,24037,4,0,0.915941,3.51215,8:03:38 AM,51.29186333,2.63113333,,DGPS,08:03:38,34592.91667,15.83066667,2.166666667,6.175,2.872916667,,,,,,,,,0001_20201005_080301,2020-10-05 08:03:38,0.5467678883071483,0.5624822160874318,,-5.317517783912568,-5.88,20.694901634928307,111.32004826866167,173.93497656102565,4.534405841889451,312.003992404897,291.3090907699687,15.07636991510532,2.180913522062004,3.2511186068769127,0.04048517,19.362934,9.956489,2.8799973999999997,0.46961267046594374,2.97050516265782,101.91015317089112,273.0,72.2,,-0.7437592513284252,2.867288537233299
0,0,0,0.00152202,0.00990946,0.0282001,0.0333378,0.0486861,0.100481,0.19018,0.221205,0.213995,0.212656,0.236553,0.273045,0.340818,0.398038,0.487834,0.529782,0.60188,0.679935,0.818013,1.06499,1.41366,1.61804,1.75989,1.85478,1.95606,2.13974,2.49331,3.06911,3.93862,4.7466,4.53397,2.68131,0.989581,39.68573148,1.02277,10.8,0.0768,1.07359,5.83,15.811,2020,10,5,8,3,39,10/5/2020,8:03:39 AM,10/05/2020 8:03:39,6.5535,147.135,39.6857,57,2402,2751,3155,0,24030,4,0,0.919906,3.33937,8:03:39 AM,51.291845,2.63111167,,DGPS,08:03:39,34593.0,15.83034615,1.415384615,6.042307692,1.607692308,,,,,,,,,0001_20201005_080301,2020-10-05 08:03:39,0.5465933682373403,0.5623076106535636,,-5.267692389346436,-5.83,31.908209634592428,166.04804095057253,181.63315910877733,3.4230908900099966,320.3770254357906,288.46881580119816,10.04058294416063,1.7752995993374774,3.1190238546485487,0.03963158,20.487023999999998,16.890081,2.2689949,0.5404938847840223,4.251216633909319,135.49243888843304,273.0,7.11,,-1.2350558902722164,2.616971269764096
0,0,0,0.00239355,0.0134397,0.033594,0.0366023,0.0491517,0.0947775,0.168536,0.190911,0.185135,0.18602,0.208539,0.241942,0.296344,0.337613,0.403113,0.43272,0.495045,0.563939,0.687044,0.899728,1.16134,1.25907,1.27395,1.26363,1.30318,1.43482,1.68166,2.03063,2.43585,2.64756,2.2923,1.37041,0.559436,26.240423749999998,1.036,10.82,0.0768,1.07148,6.0,15.811,2020,10,5,8,3,40,10/5/2020,8:03:40 AM,10/05/2020 8:03:40,6.5535,125.834,26.2404,57,2420,2715,3216,0,24056,4,0,0.933636,2.74673,8:03:40 AM,51.29183,2.63108667,,DGPS,08:03:40,34593.08,15.83056,1.704,5.848,1.378,,,,,,,,,0001_20201005_080301,2020-10-05 08:03:40,0.5464188481675323,0.5621330065487645,,-5.437866993451236,-6.0,24.248398000781506,138.38610813390363,174.55648865737817,3.904446684846954,307.6232649755194,283.3748669747379,12.686333545234822,1.9651181126214463,3.247625336139022,0.04942725,14.889869000000001,9.305556,1.9955715,0.5060812549834871,3.676236297099018,115.35830338103005,273.0,85.2,7.11,-1.0472944393094972,2.778759645084112
0,0,0,0.00218808,0.0125923,0.0323168,0.0360334,0.0498895,0.09904,0.182554,0.215041,0.214798,0.220133,0.249435,0.290374,0.357045,0.410551,0.49205,0.526169,0.586471,0.651316,0.7491,0.904451,1.0737,1.09882,1.08503,1.07576,1.12117,1.25927,1.50508,1.83924,2.1834,2.3592,2.14695,1.4536,0.643917,25.12668508,1.03232,10.82,0.0768,1.07218,5.84,15.81,2020,10,5,8,3,41,10/5/2020,8:03:41 AM,10/05/2020 8:03:41,6.5535,112.857,25.1267,57,2400,2744,3193,0,24032,4,0,0.929715,2.91508,8:03:41 AM,51.29181167,2.63106333,,DGPS,08:03:41,34592.72,15.82876,2.128,5.868,1.726,,,,,,,,,0001_20201005_080301,2020-10-05 08:03:41,0.5462443280977243,0.5619584037643423,,-5.278041596235657,-5.84,20.14156671538788,132.40892933239317,183.54272236124135,4.53640175987144,313.44535520319846,293.3037884878106,15.562113892745518,2.181548416141457,3.288677570531777,0.04709718,13.967627,8.787067,2.3248939,0.4695093494259788,3.145132876306951,108.11426377318597,273.0,72.2,7.11,-0.9001490188686799,2.944947387986286
0,0,0,0.00182579,0.0111743,0.030199,0.0348918,0.0506877,0.104744,0.20072,0.241731,0.244397,0.252864,0.291797,0.346724,0.436075,0.510556,0.620936,0.668769,0.748155,0.83431,0.958734,1.15482,1.34707,1.32429,1.23397,1.13833,1.09341,1.1304,1.26348,1.48912,1.77868,1.98767,1.84007,1.21102,0.525367,25.106987590000003,1.02277,10.81,0.0768,1.07077,5.65,15.809,2020,10,5,8,3,42,10/5/2020,8:03:42 AM,10/05/2020 8:03:42,6.5535,96.2189,25.107,57,2357,2782,3101,0,24002,4,0,0.922323,3.23438,8:03:42 AM,51.29179333,2.63104167,,DGPS,08:03:42,34592.52,15.82852,2.392,5.928,2.384,,,,,,,,,0001_20201005_080301,2020-10-05 08:03:42,0.5460698080279162,0.5617838022914732,,-5.088216197708527,-5.65,17.7337926247327,97.52499870416176,173.68747516929176,5.175900552567409,301.47027374685325,283.73648112212055,16.99976311476673,2.37180989830103,3.344328897824815,0.04319909,15.005794,7.3428070000000005,2.7151875,0.4395487388314044,2.7024764594015167,91.9043265512989,273.0,61.2,,-0.6391488322385296,2.9920966870381323
0,0,0,0.0019282,0.0117235,0.0306545,0.0337342,0.0462615,0.0928058,0.172602,0.203597,0.203594,0.208191,0.234566,0.269783,0.327161,0.371633,0.443237,0.471577,0.523471,0.578644,0.672712,0.833766,1.03702,1.11503,1.15952,1.20665,1.28929,1.4301,1.63678,1.91044,2.22629,2.43918,2.29064,1.54489,0.650218,25.667689699999993,1.03159,10.81,0.0768,1.07077,5.65,15.809,2020,10,5,8,3,43,10/5/2020,8:03:43 AM,10/05/2020 8:03:43,6.5535,123.048,25.6677,57,2390,2737,3153,0,24002,4,0,0.930274,2.89103,8:03:43 AM,51.291775,2.63101833,,DGPS,08:03:43,34592.4,15.82712,0.504,5.788,2.042,,,,,,,,,0001_20201005_080301,2020-10-05 08:03:43,0.5458952879581082,0.5616092021212076,,-5.088390797878793,-5.65,21.985085444449684,137.8621901639566,180.48593100349132,4.118688581954783,315.12025659440644,293.13517114995676,14.333365107478404,2.0421850467562193,3.25414825262897,0.044306200000000004,14.308237,9.151218,2.1639285,0.4927430667009715,3.431595908083324,113.85644385163147,273.0,7.11,,-0.9951092743622121,2.861553647211591
0,0,0,0.00235716,0.0132936,0.0331884,0.035926,0.0478798,0.0927048,0.166536,0.191758,0.189552,0.192523,0.216717,0.250723,0.306323,0.349668,0.419887,0.454347,0.519426,0.591249,0.709738,0.903961,1.14355,1.24694,1.31684,1.39387,1.51802,1.69958,1.91745,2.11732,2.24579,2.22614,1.95965,1.33885,0.617988,26.429745760000003,1.03085,10.82,0.0768,1.07077,5.79,15.81,2020,10,5,8,3,44,10/5/2020,8:03:44 AM,10/05/2020 8:03:44,6.5535,119.239,26.4298,57,2405,2719,3225,0,24024,4,0,0.929612,2.91953,8:03:44 AM,51.29175667,2.63099667,,DGPS,08:03:44,34592.44,15.82856,4.544,5.688,1.626,,,,,,,,,0001_20201005_080301,2020-10-05 08:03:44,0.5457207678883002,0.5614346032444743,,-5.228565396755526,-5.79,23.812466580191064,129.79277542635484,163.01776085205668,3.7510432749115132,305.14155099261484,281.32908441242375,12.814361333170487,1.9072919071316408,3.246478028399893,0.04883916,15.952178,8.388418,2.0403105999999998,0.5163259618327267,3.6613561481415817,111.68808046214505,230.0,7.11,,-1.013928347879915,2.753125127211304
0,0,0,0.00205573,0.0123387,0.0324763,0.036479,0.0510901,0.102952,0.192075,0.225783,0.225246,0.230378,0.262556,0.308869,0.385903,0.450026,0.54621,0.587583,0.656302,0.730283,0.854435,1.07193,1.33514,1.39953,1.35491,1.2597,1.20128,1.24384,1.4255,1.73166,2.11375,2.34796,2.10687,1.29202,0.540285,26.317415830000005,1.02571,10.82,0.0768,1.07218,5.72,15.809,2020,10,5,8,3,45,10/5/2020,8:03:45 AM,10/05/2020 8:03:45,6.5535,100.866,26.3174,57,2375,2789,3144,0,24013,4,0,0.92376,3.17213,8:03:45 AM,51.29173667,2.63097167,,DGPS,08:03:45,34592.28,15.82964,0.352,5.752,1.206,,,,,,,,,0001_20201005_080301,2020-10-05 08:03:45,0.545546247818492,0.5612600056520858,,-5.158739994347914,-5.72,19.87993284613373,113.34188387998795,175.94372491480974,4.60048159868991,303.61355745591277,283.73362460977904,15.272363332704106,2.201784896750737,3.3045643646134937,0.04687073,15.398303,8.400885,2.4713571,0.4662279988031142,3.0241857872859708,101.06037281354095,273.0,72.2,7.11,-0.7980575241110708,2.910619568448385
0,0,0,0.0019789,0.0119998,0.0320963,0.0365486,0.0517007,0.105082,0.198476,0.237923,0.243077,0.255903,0.301572,0.363983,0.455849,0.522445,0.614101,0.634852,0.68438,0.735363,0.822235,0.97275,1.14613,1.17217,1.15302,1.11578,1.09363,1.10605,1.1607,1.24848,1.36025,1.42079,1.30759,0.904322,0.413675,21.884902300000004,1.02351,10.82,0.0768,1.07077,5.6,15.808,2020,10,5,8,3,46,10/5/2020,8:03:46 AM,10/05/2020 8:03:46,6.5535,91.5343,21.8849,57,2366,2809,3124,0,23994,4,0,0.922986,3.20566,8:03:46 AM,51.29171667,2.63095,,DGPS,08:03:46,34592.04,15.82688,1.4,5.804,2.086,,,,,,,,,0001_20201005_080301,2020-10-05 08:03:46,0.545371727748684,0.5610854093347432,,-5.038914590665256,-5.6,15.67126175206264,87.68839176323321,156.25442835944256,5.215423034382778,289.085914989939,273.41465323787634,18.44688191439912,2.3827842776450825,3.407440931984543,0.046075000000000005,13.659641,5.406627,2.7725593,0.43788012119629127,2.6171717712322904,83.4210937275854,273.0,72.2,,-0.5748630268476147,3.0248844176816987
0,0,0,0.00205486,0.0120495,0.03121,0.0349399,0.049044,0.0986707,0.184026,0.217128,0.217172,0.22352,0.25682,0.304882,0.380862,0.440975,0.528293,0.561023,0.621714,0.686603,0.790748,0.965797,1.16315,1.18946,1.13815,1.04775,0.970208,0.947137,1.01598,1.22077,1.63736,2.24692,2.71462,2.25488,1.08446,25.23837696,1.03453,10.82,0.0768,1.07148,5.56,15.808,2020,10,5,8,3,47,10/5/2020,8:03:47 AM,10/05/2020 8:03:47,6.5535,116.98,25.2384,57,2392,2779,3152,0,23987,4,0,0.932312,2.80351,8:03:47 AM,51.29169833,2.63092833,,DGPS,08:03:47,34592.28,15.82596,3.888,5.656,2.44,,,,,,,,,0001_20201005_080301,2020-10-05 08:03:47,0.545197207678876,0.5609108142830407,,-4.999089185716959,-5.56,19.63378337532428,129.7257426488556,218.44041689254288,5.43193785675401,345.180733653024,325.5469502776997,17.580958649408693,2.44146697474729,3.2823103260162085,0.04531436,12.846783,9.93824,2.4080396,0.42906452004460444,2.8360350522162507,110.60886902223181,324.0,72.2,,-0.783704644561615,3.0899565982327535
0,0,0,0.0023542,0.0129616,0.0323453,0.0358735,0.0495131,0.0970331,0.176815,0.207675,0.208361,0.214042,0.243041,0.283351,0.346974,0.395584,0.468588,0.496401,0.551182,0.609698,0.71021,0.882487,1.10025,1.18693,1.2122,1.18856,1.15387,1.15556,1.24586,1.47014,1.85377,2.27301,2.34119,1.66691,0.729008,24.601747800000002,1.03012,10.82,0.0768,1.07218,5.51,15.808,2020,10,5,8,3,48,10/5/2020,8:03:48 AM,10/05/2020 8:03:48,6.5535,114.342,24.6017,57,2374,2794,3149,0,23980,4,0,0.92773,3.00058,8:03:48 AM,51.29168167,2.63090667,,DGPS,08:03:48,34592.0,15.82676,5.624,5.6,2.06,,,,,,,,,0001_20201005_080301,2020-10-05 08:03:48,0.545022687609068,0.5607362204874702,,-4.949263779512529,-5.51,20.288077975579302,126.50000652372181,192.51453328876448,4.6400037863466395,322.48052831263226,302.19245033705295,15.895075359075468,2.2141259826246777,3.2832087348254415,0.0476611,13.431936,8.863888,2.2582627,0.4642381560281659,3.1197906367346073,109.01282279105483,324.0,85.2,,-0.869590528954368,2.9648021219188423
0,0,0,0.00259109,0.0139409,0.0340211,0.0370057,0.0497201,0.0955785,0.170893,0.197682,0.19811,0.203968,0.232803,0.273722,0.338051,0.388798,0.461902,0.487802,0.534689,0.583623,0.667581,0.811894,0.994964,1.0703,1.12083,1.17334,1.25756,1.39604,1.60124,1.88188,2.20986,2.39232,2.11798,1.30556,0.540154,24.846403389999995,1.03747,10.82,0.0768,1.07077,5.54,15.807,2020,10,5,8,3,49,10/5/2020,8:03:49 AM,10/05/2020 8:03:49,6.5535,116.886,24.8464,57,2387,2792,3186,0,23985,4,0,0.935575,2.66376,8:03:49 AM,51.29166167,2.63088,,DGPS,08:03:49,34592.0,15.82529167,4.875,5.579166667,2.222916667,,,,,,,,,0001_20201005_080301,2020-10-05 08:03:49,0.54484816753926,0.560561627938426,,-4.9794383720615745,-5.54,21.00435816178879,134.03209950814738,176.68562196463336,4.171732292982616,307.6849453994029,286.68058723761413,14.64862401552191,2.0606465806816714,3.282890202244766,0.050553089999999995,14.043645,8.565874,2.1863313,0.48960042302389717,3.3754845112616767,110.38315144348664,273.0,,,-0.9789347078920893,2.8776936090355125
0,0,0,0.00189968,0.0118078,0.0320273,0.0364474,0.0512278,0.103915,0.195105,0.230053,0.23093,0.239436,0.27824,0.3321,0.417256,0.483931,0.583478,0.621879,0.694684,0.773223,0.910277,1.14586,1.4287,1.5015,1.46298,1.35302,1.24357,1.19304,1.23946,1.39915,1.66831,1.89961,1.78774,1.15735,0.490912,25.199118979999998,1.02792,10.81,0.0768,1.07218,5.51,15.808,2020,10,5,8,3,50,10/5/2020,8:03:50 AM,10/05/2020 8:03:50,6.5535,96.2495,25.1991,57,2388,2790,3136,0,23980,4,0,0.925745,3.08626,8:03:50 AM,51.29164167,2.630855,,DGPS,08:03:50,34592.4,15.82588,1.584,5.564,2.078,,,,,,,,,0001_20201005_080301,2020-10-05 08:03:50,0.5446736474694519,0.5603870366262091,,-4.949612963373791,-5.51,18.40819648089539,94.60278676774493,164.70782729881478,4.712702494279781,298.04259683116857,279.63440035027315,16.19075487055381,2.2365546090904607,3.340930816544265,0.04573478,15.550821000000001,7.003922,2.5986412,0.4606435429748558,2.856131511740808,91.91440139394454,273.0,72.2,,-0.6629333770350686,2.919780053134237
0,0,0,0.00234766,0.0132211,0.0332935,0.0366131,0.0496501,0.096345,0.172809,0.197975,0.194274,0.197268,0.223076,0.260233,0.31956,0.365004,0.434437,0.461895,0.513787,0.568963,0.659916,0.815961,1.00779,1.07426,1.08881,1.08429,1.11191,1.22892,1.50776,2.03103,2.88407,3.82717,4.15388,2.99835,1.29139,30.906258459999997,1.02865,10.79,0.0768,1.07077,5.45,15.808,2020,10,5,8,3,51,10/5/2020,8:03:51 AM,10/05/2020 8:03:51,6.5535,156.034,30.9063,57,2381,2774,3154,0,23971,4,0,0.927624,3.00515,8:03:51 AM,51.29162333,2.63083167,,DGPS,08:03:51,34592.69231,15.82719231,1.684615385,5.592307692,1.675,,,,,,,,,0001_20201005_080301,2020-10-05 08:03:51,0.5444991273996439,0.5602124465410323,,-4.889787553458968,-5.45,26.987196482798772,190.2742857162996,208.68506884659269,3.878144833812107,347.501113248343,320.51391676554425,12.87651770237916,1.9553666835686538,3.1804260896073626,0.04886226,13.589729,15.15486,2.1128071999999998,0.5077944943979219,3.9428546268201736,140.50876885384503,324.0,85.2,7.11,-1.2332498008644972,2.835617298543611
0,0,0,0.00190162,0.0111768,0.0297252,0.0343797,0.0492638,0.0993905,0.185888,0.220085,0.220407,0.226266,0.25798,0.300582,0.369559,0.420844,0.499693,0.528658,0.589425,0.653715,0.768468,0.96991,1.233,1.35148,1.40735,1.44198,1.53314,1.76105,2.21771,2.99411,4.12285,5.17781,5.0963,3.36607,1.39519,39.535357620000006,1.02277,10.82,0.0768,1.07077,5.49,15.809,2020,10,5,8,3,52,10/5/2020,8:03:52 AM,10/05/2020 8:03:52,6.5535,146.504,39.5354,57,2397,2783,3203,0,23977,4,0,0.922323,3.23438,8:03:52 AM,51.29160333,2.63081,,DGPS,08:03:52,34592.72,15.8286,3.536,5.5,1.678,,,,,,,,,0001_20201005_080301,2020-10-05 08:03:52,0.5443246073298359,0.5600378576730235,,-4.929962142326977,-5.49,30.782515863510117,188.48063488911143,192.85661324309638,3.4135432239153762,337.9030922846863,307.12057642117617,10.977110960746382,1.7712700200877656,3.1205689469040307,0.04280362,17.949689,19.15822,2.384645,0.5412492365394531,4.283498378267035,144.57941679201295,273.0,,,-1.3127516379988236,2.689483883633188
0,0,0,0.00157587,0.0100396,0.0282536,0.0336366,0.050357,0.106213,0.207483,0.253421,0.258083,0.269302,0.313042,0.37163,0.46502,0.539014,0.649037,0.689769,0.765578,0.846866,0.972583,1.17843,1.39576,1.39621,1.31672,1.21387,1.1486,1.16229,1.28735,1.55134,1.95117,2.31865,2.26378,1.51986,0.643374,27.178307670000006,1.02204,10.82,0.0768,1.07288,5.47,15.81,2020,10,5,8,3,53,10/5/2020,8:03:53 AM,10/05/2020 8:03:53,6.5535,104.353,27.1783,57,2381,2813,3123,0,23973,4,0,0.919848,3.34189,8:03:53 AM,51.29158333,2.63079167,,DGPS,08:03:53,34592.88,15.83044,1.64,5.54,2.194,,,,,,,,,0001_20201005_080301,2020-10-05 08:03:53,0.5441500872600279,0.5598632700122306,,-4.910136729987769,-5.47,18.127348288589975,104.77900706524846,185.42086245078488,5.249916575391339,310.68643734098714,292.55908905239716,17.139100126218942,2.3922944975929568,3.3152261265223046,0.03986907,15.574403,8.696834,2.8672016,0.43643924808323414,2.704057091365791,96.50537348491504,273.0,72.2,,-0.6715751215930884,3.010993565412299
0,0,0,0.00155444,0.00979899,0.0274897,0.0328495,0.0493783,0.104316,0.204717,0.252149,0.259178,0.272235,0.318581,0.380672,0.480205,0.560675,0.676804,0.718408,0.790209,0.866044,0.988072,1.19444,1.44333,1.506,1.49854,1.43827,1.36069,1.30387,1.30355,1.38917,1.58396,1.82636,1.89537,1.44715,0.665374,26.849409930000004,1.0191,10.81,0.0768,1.07218,5.32,15.811,2020,10,5,8,3,54,10/5/2020,8:03:54 AM,10/05/2020 8:03:54,6.5535,94.2519,26.8494,57,2360,2784,3088,0,23950,4,0,0.917804,3.43085,8:03:54 AM,51.29156167,2.63077,,DGPS,08:03:54,34592.8,15.83056,2.88,5.572,2.258,,,,,,,,,0001_20201005_080301,2020-10-05 08:03:54,0.5439755671902198,0.5596886835486253,,-4.760311316451375,-5.32,17.750084927619145,93.53461810351376,168.005437596623,5.011543923000012,307.6670149529431,289.91693002532395,17.33327002138525,2.32525512775533,3.3248648523306716,0.038843130000000003,16.477397,7.418214,2.9149558,0.44669822780211044,2.698268063734243,90.79552908075858,324.0,72.2,,-0.5959449837557121,2.9661261252314772
0,0,0,0.00166348,0.0103721,0.0283606,0.0327445,0.0468958,0.0951535,0.177624,0.207542,0.20402,0.208315,0.237666,0.278893,0.345337,0.394469,0.469538,0.494939,0.553855,0.616536,0.735602,0.94618,1.21755,1.33597,1.39784,1.45544,1.57576,1.81452,2.21972,2.8135,3.58141,4.19218,3.92118,2.43372,0.96968,35.01417598,1.03085,10.82,0.0768,1.07077,5.3,15.811,2020,10,5,8,3,55,10/5/2020,8:03:55 AM,10/05/2020 8:03:55,6.5535,144.926,35.0142,57,2368,2780,3150,0,23947,4,0,0.929612,2.91953,8:03:55 AM,51.29154333,2.63074833,,DGPS,08:03:55,34592.0,15.83092,4.416,5.38,2.172,,,,,,,,,0001_20201005_080301,2020-10-05 08:03:55,0.5438010471204118,0.5595140982721081,,-4.740485901727892,-5.3,28.967059958764935,169.01169157241185,184.32362719119152,3.5186249172946718,322.61583261223296,293.64877265346803,11.137334374682197,1.8150117321040895,3.147055568887535,0.040396180000000004,17.64695,15.09817,2.2286598,0.5331059295751787,4.10364638812443,134.28222828178548,273.0,7.11,,-1.2276680580535493,2.6881314160387837
0,0,0,0.00218786,0.0123828,0.0313672,0.034842,0.0483819,0.096096,0.177123,0.207641,0.20663,0.210968,0.239262,0.280663,0.349124,0.406464,0.488931,0.520452,0.56788,0.616952,0.687954,0.806969,0.953485,1.00002,1.0414,1.10798,1.22924,1.43479,1.74494,2.16246,2.64186,2.94417,2.67837,1.73535,0.755069,27.42140476,1.03012,10.82,0.0768,1.07288,5.39,15.81,2020,10,5,8,3,56,10/5/2020,8:03:56 AM,10/05/2020 8:03:56,6.5535,119.827,27.4214,57,2380,2783,3175,0,23961,4,0,0.927122,3.02682,8:03:56 AM,51.29152667,2.630725,,DGPS,08:03:56,34592.04,15.8282,3.752,5.292,1.886,,,,,,,,,0001_20201005_080301,2020-10-05 08:03:56,0.5436265270506038,0.559339514172511,,-4.830660485827488,-5.39,22.31516809365185,153.12230105559522,187.21915168594538,4.107320753771575,318.8264373183829,296.51126922473105,14.287431579288961,2.0381976163713444,3.24043259743288,0.04593786,14.363453,10.754819,2.2571949,0.493424477826395,3.4897941170731768,119.82042089609428,273.0,7.11,,-1.0609940543890384,2.877303097689506
0,0,0,0.00229971,0.0131257,0.0332125,0.0363889,0.0491586,0.0954773,0.170951,0.193727,0.187768,0.18682,0.206327,0.236326,0.287648,0.329515,0.395969,0.427483,0.481672,0.540724,0.626009,0.761583,0.90831,0.928443,0.908825,0.885704,0.900282,0.993847,1.2217,1.66034,2.4031,3.28325,3.5036,2.31136,0.885683,26.05662871,1.03967,10.82,0.0768,1.07218,5.43,15.809,2020,10,5,8,3,57,10/5/2020,8:03:57 AM,10/05/2020 8:03:57,6.5535,141.803,26.0566,57,2381,2756,3151,0,23968,4,0,0.936332,2.63139,8:03:57 AM,51.29150333,2.63070833,,DGPS,08:03:57,34592.2,15.82772,0.832,5.444,1.488,,,,,,,,,0001_20201005_080301,2020-10-05 08:03:57,0.5434520069807958,0.559164931239603,,-4.870835068760397,-5.43,24.314290681484625,182.81476116736334,210.43879875315292,4.234468619000841,338.84497191649666,314.530681235012,13.936041826403256,2.0821809379561302,3.2330986176661516,0.04863791,11.640891,12.386993,1.9801068000000002,0.48596001930020244,3.6860779623423006,132.65618536895118,324.0,72.2,7.11,-1.1634377927545525,2.9233849336388613
0,0,0,0.00135919,0.00931055,0.0268778,0.0312791,0.0452744,0.0947758,0.182144,0.214695,0.210996,0.213205,0.240605,0.280189,0.3458,0.39619,0.470055,0.487938,0.525968,0.564463,0.629321,0.741853,0.87379,0.901179,0.924117,0.967893,1.05157,1.21187,1.51474,2.05003,2.86623,3.62701,3.56918,2.28726,0.910705,28.467872839999995,1.02865,10.82,0.0768,1.07288,5.4,15.808,2020,10,5,8,3,58,10/5/2020,8:03:58 AM,10/05/2020 8:03:58,6.5535,141.035,28.4679,57,2371,2735,3126,0,23963,4,0,0.925799,3.08392,8:03:58 AM,51.29148167,2.63068833,,DGPS,08:03:58,34593.12,15.82664,1.304,5.5,1.566,,,,,,,,,0001_20201005_080301,2020-10-05 08:03:58,0.5432774869109878,0.5589903494630923,,-4.841009650536908,-5.4,23.34343024389627,180.12773022013738,201.0651934164827,3.9805532555790606,332.8283193590674,309.48488911517114,14.257901083157808,1.9929689643388693,3.2120664545252042,0.037547540000000004,12.914787,13.260385,2.2551533,0.5012198713062919,3.670552098082044,132.18350006801543,273.0,7.11,,-1.1779667703249062,2.8972094622631808
0,0,0,0.00249792,0.0131376,0.0314251,0.033817,0.0452095,0.0868808,0.15595,0.182848,0.184596,0.190361,0.215408,0.249227,0.301651,0.34091,0.399322,0.41827,0.454693,0.492068,0.554899,0.66266,0.805642,0.875427,0.939123,1.01826,1.14538,1.35317,1.65335,2.05577,2.49762,2.74234,2.46265,1.58735,0.648974,24.80088692,1.03085,10.82,0.0768,1.07218,5.47,15.807,2020,10,5,8,3,59,10/5/2020,8:03:59 AM,10/05/2020 8:03:59,6.5535,126.498,24.8009,57,2389,2718,3181,0,23974,4,0,0.928392,2.97206,8:03:59 AM,51.29146333,2.63066833,,DGPS,08:03:59,34592.72,15.826,2.36,5.5,1.324,,,,,,,,,0001_20201005_080301,2020-10-05 08:03:59,0.5431029668411796,0.5588157688326316,,-4.911184231167368,-5.47,23.116414895861606,158.47942476990227,182.81356728825966,3.780988988446766,318.55343587276235,295.4370209769007,13.780399655735158,1.9187636477021965,3.239369745138867,0.04706062,12.828033999999999,9.938934,1.9868583,0.5142772272582364,3.7600711998412173,123.76269501634066,273.0,,,-1.1553643092785981,2.843398642308544
0,0,0,0.00207754,0.0118922,0.0302737,0.0335679,0.0463348,0.0917121,0.168841,0.19988,0.202126,0.209858,0.240905,0.281736,0.341039,0.380753,0.436979,0.443187,0.466654,0.488954,0.532998,0.617286,0.738726,0.808816,0.9016,1.03605,1.22437,1.48201,1.82782,2.27986,2.82339,3.20426,2.95258,1.9106,0.78462,27.20175624,1.03747,10.82,0.0768,1.07077,5.56,15.807,2020,10,5,8,4,0,10/5/2020,8:04:00 AM,10/05/2020 8:04:00,6.5535,137.067,27.2018,57,2374,2728,3154,0,23987,4,0,0.935575,2.66376,8:04:00 AM,51.29144333,2.630655,,DGPS,08:04:00,34592.2,15.826,3.648,5.54,1.834,,,,,,,,,0001_20201005_080301,2020-10-05 08:04:00,0.5429284467713716,0.558641189337821,,-5.001358810662179,-5.56,23.053533254780486,169.34127490739777,184.13352304790047,3.538251818453368,323.531312766856,300.47777951207553,14.033914419594101,1.823036728725258,3.2231593101349776,0.04424344,13.285309999999999,11.67545,2.1967528,0.5316252876739389,3.8859142898433054,129.8823923621217,273.0,,,-1.2307359249999097,2.847956595021975
0,0,0,0.00210822,0.0124621,0.032793,0.0370467,0.0517636,0.104014,0.194098,0.229685,0.231564,0.239917,0.277499,0.330333,0.415077,0.484045,0.584682,0.625226,0.693755,0.767199,0.884731,1.08129,1.3102,1.35853,1.3326,1.26379,1.1992,1.17438,1.21206,1.31649,1.4677,1.55276,1.39254,0.915147,0.399895,23.17458062,1.03085,10.82,0.0768,1.07288,5.52,15.807,2020,10,5,8,4,1,10/5/2020,8:04:01 AM,10/05/2020 8:04:01,6.5535,86.3515,23.1746,57,2371,2739,3135,0,23982,4,0,0.927783,2.9983,8:04:01 AM,51.29142167,2.630645,,DGPS,08:04:01,34592.0,15.82516,2.52,5.648,1.854,,,,,,,,,0001_20201005_080301,2020-10-05 08:04:01,0.5427539267015636,0.5584666109682122,,-4.961533389031787,-5.52,17.20130733430374,88.79075955508534,152.68349422324218,4.751442418533673,286.41850404482716,269.2171967105234,16.650973003292403,2.2483655459000773,3.382187923408765,0.04736332,14.804133,5.728042,2.5950423,0.4587618176022037,2.7952817778604016,86.11518638720717,273.0,72.2,,-0.6209954371131552,2.929874139664145
0,0,0,0.00221059,0.012497,0.0317128,0.0352892,0.0489169,0.0968814,0.178165,0.209849,0.21028,0.215728,0.245138,0.286769,0.35288,0.403618,0.477434,0.502221,0.550377,0.600743,0.685403,0.831025,1.01355,1.0817,1.1186,1.14652,1.19397,1.2904,1.46505,1.7435,2.1247,2.44178,2.35693,1.59757,0.680096,25.231503890000003,1.02792,10.81,0.0768,1.07218,5.46,15.807,2020,10,5,8,4,2,10/5/2020,8:04:02 AM,10/05/2020 8:04:02,6.5535,119.227,25.2315,57,2363,2735,3109,0,23972,4,0,0.925745,3.08626,8:04:02 AM,51.29139833,2.63063333,,DGPS,08:04:02,34592.36,15.827,1.728,5.592,2.594,,,,,,,,,0001_20201005_080301,2020-10-05 08:04:02,0.5425794066317555,0.5582920337133115,,-4.901707966286688,-5.46,20.546250323036393,136.41230720246125,187.97950012787524,4.432290763896828,318.27151206249266,297.72526173945624,15.490491309046673,2.1480525271164317,3.2742858640227297,0.04642039,13.700493,9.201076,2.2835145,0.47499154436978486,3.23646536076657,111.74960415359078,273.0,,,-0.9418610257004604,2.937194299543472
0,0,0,0.00247658,0.0135498,0.0329606,0.0351827,0.0464816,0.0895519,0.160665,0.186856,0.1877,0.193838,0.221484,0.260638,0.322468,0.370968,0.440406,0.463813,0.504463,0.545947,0.617888,0.744139,0.912821,0.994153,1.05406,1.11158,1.21176,1.41518,1.79441,2.40529,3.22519,3.83243,3.46912,2.05117,0.73784,29.656480179999996,1.03673,10.82,0.0768,1.07288,5.51,15.808,2020,10,5,8,4,3,10/5/2020,8:04:03 AM,10/05/2020 8:04:03,6.5535,144.081,29.6565,57,2376,2735,3183,0,23980,4,0,0.933073,2.77086,8:04:03 AM,51.29137833,2.63062,,DGPS,08:04:03,34592.5,15.826,2.466666667,5.508333333,1.575,,,,,,,,,0001_20201005_080301,2020-10-05 08:04:03,0.5424048865619475,0.5581174575625838,,-4.951882542437416,-5.51,26.114261077505393,175.55509274202623,186.2965446596799,3.553806285425314,321.1867829880678,295.07252191056244,12.299286663130417,1.8293650435857922,3.1965603222498613,0.04898698,14.215910000000001,13.31575,2.0758332,0.5304605905339489,4.045936774172532,133.8134773117689,273.0,,,-1.2569878657678961,2.768426075427955
0,0,0,0.00221696,0.0128105,0.0322899,0.0348431,0.0463644,0.0900982,0.162254,0.187058,0.185984,0.191721,0.220081,0.258686,0.316186,0.356145,0.417567,0.436685,0.48245,0.530567,0.618345,0.770588,0.969617,1.06627,1.12448,1.14973,1.17667,1.26664,1.48292,1.88519,2.55498,3.37492,3.6524,2.56517,1.06499,28.68691706,1.03379,10.82,0.0768,1.07288,5.81,15.807,2020,10,5,8,4,4,10/5/2020,8:04:04 AM,10/05/2020 8:04:04,6.5535,145.536,28.6869,57,2396,2750,3202,0,24026,4,0,0.930428,2.88442,8:04:04 AM,51.29135833,2.63060333,,DGPS,08:04:04,34592.61538,15.82684615,2.846153846,5.538461538,1.323076923,,,,,,,,,0001_20201005_080301,2020-10-05 08:04:04,0.5422303664921395,0.5579428825054561,,-5.252057117494544,-5.81,25.895688917391052,176.40409190001066,204.61194023046147,3.930958785481672,341.2857015781367,315.39001266074564,13.1792478148336,1.974881237765337,3.191085282355683,0.04731736,13.377719,13.21246,2.0494207,0.5043717513356442,3.831206155515597,134.7334619466458,324.0,7.11,,-1.1787401818248977,2.837462325986277
0,0,0,0.00205273,0.0122106,0.032027,0.0360317,0.0505716,0.101879,0.190152,0.224368,0.223927,0.229612,0.262119,0.307449,0.379875,0.435053,0.516089,0.541861,0.596498,0.653829,0.760023,0.950506,1.20476,1.3247,1.38705,1.40437,1.41914,1.47615,1.61793,1.87544,2.27277,2.65156,2.57463,1.70719,0.740827,28.162650630000005,1.02277,10.82,0.0768,1.07288,5.65,15.807,2020,10,5,8,4,5,10/5/2020,8:04:05 AM,10/05/2020 8:04:05,6.5535,118.287,28.1627,57,2381,2748,3130,0,24001,4,0,0.920509,3.31315,8:04:05 AM,51.29133833,2.63058667,,DGPS,08:04:05,34592.44,15.82636,3.984,5.748,2.034,,,,,,,,,0001_20201005_080301,2020-10-05 08:04:05,0.5420558464223315,0.557768308531321,,-5.09223169146868,-5.65,21.362565795290298,130.46082130364,183.77656553021177,4.291260741917876,316.15942814473476,294.79686234944444,14.799693593661718,2.1014015635527046,3.257206210638939,0.046290330000000005,15.728346,9.946977,2.4410373,0.48273362210214277,3.2831438030582643,111.21335738349114,273.0,7.11,,-0.9279742557675481,2.8827227025794375
0,0,0,0.00214967,0.0124451,0.031401,0.0339245,0.0454601,0.0891344,0.162059,0.188759,0.187317,0.191449,0.216213,0.250642,0.303228,0.339841,0.393336,0.403059,0.431154,0.459193,0.514045,0.613677,0.73995,0.780719,0.79604,0.811936,0.870023,1.0198,1.31068,1.82188,2.56384,3.28828,3.30726,2.25069,0.925529,25.35511377,1.03232,10.82,0.0768,1.07288,5.66,15.807,2020,10,5,8,4,6,10/5/2020,8:04:06 AM,10/05/2020 8:04:06,6.5535,148.846,25.3551,57,2387,2724,3156,0,24004,4,0,0.929106,2.94132,8:04:06 AM,51.29131833,2.63056833,,DGPS,08:04:06,34592.64,15.82652,3.92,5.768,3.17,,,,,,,,,0001_20201005_080301,2020-10-05 08:04:06,0.5418813263525235,0.5575937356295396,,-5.102406264370461,-5.66,23.5202343854399,188.9805937632297,203.61940327284216,3.850454229496587,340.5587908423965,317.0385564569566,14.47939613447126,1.9450286473627674,3.2277372615425337,0.04599577,10.965492,12.335599,2.0080270000000002,0.5096171295798423,3.8515025352554155,136.55753675434772,324.0,7.11,,-1.2460448245316766,2.9181196038220585
0,0,0,0.00210792,0.012429,0.0331323,0.0384682,0.0550286,0.108053,0.192576,0.210908,0.192238,0.18171,0.191571,0.211782,0.252612,0.287847,0.345647,0.371972,0.414781,0.460967,0.520885,0.618154,0.729398,0.752369,0.76244,0.782116,0.832336,0.941963,1.1547,1.55561,2.21259,2.98697,3.21071,2.24917,0.906454,23.77969502,1.03526,10.82,0.0768,1.07007,5.8,15.805,2020,10,5,8,4,7,10/5/2020,8:04:07 AM,10/05/2020 8:04:07,6.5535,145.364,23.7797,57,2388,2712,3179,0,24025,4,0,0.934201,2.72254,8:04:07 AM,51.29129833,2.63055333,,DGPS,08:04:07,34592.53846,15.82561538,2.538461538,5.7,1.857692308,,,,,,,,,0001_20201005_080301,2020-10-05 08:04:07,0.5417068062827154,0.5574191637894451,,-5.242580836210554,-5.8,23.32102754624579,188.33283368451185,210.7103932303787,4.07624147953571,344.2205290507369,320.8995015044911,14.76009272610929,2.027239520348,3.2614581109084213,0.047669220000000005,10.243338,11.565894,1.9227938,0.4953019616214505,3.8265010830078063,134.66769635119576,324.0,7.11,,-1.2345385363202037,2.9879512284168155
0,0,0,0.00226862,0.0127266,0.0316808,0.0344341,0.0467166,0.0920349,0.168785,0.199231,0.201296,0.208636,0.238789,0.279914,0.343463,0.391781,0.462883,0.486241,0.533261,0.582519,0.660845,0.787816,0.91796,0.916649,0.879634,0.85184,0.881016,1.01847,1.32621,1.87029,2.67365,3.45741,3.54124,2.38652,0.959655,27.44586562,1.03453,10.81,0.0768,1.07218,5.81,15.805,2020,10,5,8,4,8,10/5/2020,8:04:08 AM,10/05/2020 8:04:08,6.5535,139.443,27.4459,57,2370,2732,3158,0,24027,4,0,0.9317,2.82976,8:04:08 AM,51.29127833,2.63054,,DGPS,08:04:08,34592.25,15.82345833,1.55,5.775,1.741666667,,,,,,,,,0001_20201005_080301,2020-10-05 08:04:08,0.5415322862129074,0.5572445930003459,,-5.252755406999654,-5.81,22.928041561115588,183.10824288188388,210.14449284686657,4.32515855538651,338.62075663752483,315.69271507640923,14.768847820469883,2.112753021275829,3.2288580303040555,0.04667602,12.175634,13.018475,2.2050806,0.4808382231012136,3.527840040443833,131.32144559202698,324.0,61.2,,-1.1323526781545732,2.947201937818252
0,0,0,0.00275664,0.0138997,0.0327588,0.0355101,0.047322,0.0888453,0.155172,0.177905,0.176437,0.179854,0.202092,0.233651,0.28185,0.317601,0.368643,0.381997,0.409308,0.436731,0.477386,0.544594,0.619503,0.629734,0.641565,0.677183,0.75688,0.904907,1.1486,1.55226,2.22192,3.2245,4.10667,3.60366,1.68081,26.332505540000003,1.04114,10.82,0.0768,1.07218,5.84,15.806,2020,10,5,8,4,9,10/5/2020,8:04:09 AM,10/05/2020 8:04:09,6.5535,165.575,26.3325,57,2398,2719,3184,0,24032,4,0,0.937656,2.57489,8:04:09 AM,51.291255,2.63052833,,DGPS,08:04:09,34592.46154,15.82419231,3.707692308,5.884615385,2.026923077,,,,,,,,,0001_20201005_080301,2020-10-05 08:04:09,0.5413577661430994,0.5570700232515291,,-5.282929976748471,-5.84,25.994322196816274,220.78093973526072,218.9340304896508,3.4883271826103566,368.5441054302148,342.54978323339856,14.177869407010476,1.8025353619589606,3.202593922528653,0.049415139999999996,9.549291,14.83756,1.8962394,0.535416060043134,4.218044702792248,155.8685243598506,324.0,7.11,,-1.3917455519773498,2.9342382728012955
0,0,0,0.00180826,0.0105344,0.0274656,0.0312313,0.0443721,0.0889466,0.165206,0.196477,0.194517,0.19641,0.216245,0.241779,0.285095,0.315691,0.368917,0.388525,0.4317,0.477267,0.559933,0.704453,0.89282,0.976954,1.0228,1.05092,1.09958,1.23003,1.51774,2.09843,3.11626,4.58723,5.70314,4.78602,2.06571,35.09420726,1.02498,10.81,0.0768,1.07218,5.83,15.808,2020,10,5,8,4,10,10/5/2020,8:04:10 AM,10/05/2020 8:04:10,6.5535,184.772,35.0942,57,2389,2720,3157,0,24030,4,0,0.923098,3.2008,8:04:10 AM,51.291235,2.63051833,,DGPS,08:04:10,34592.75,15.82645833,3.55,5.9,2.2,,,,,,,,,0001_20201005_080301,2020-10-05 08:04:10,0.5411832460732913,0.5568954545322632,,-5.273104545467737,-5.83,35.066605795166126,225.11801537792616,206.7170106638195,3.085672482070607,366.14155590759236,331.0749501124262,10.441317247706488,1.6255849402080544,3.1065352243314335,0.03980826,12.820069,20.25836,1.97597,0.5692788987127985,4.83354086360425,166.4211265892683,324.0,7.11,,-1.5111331184528913,2.7093341184738033
0,0,0,0.0019841,0.0119924,0.031454,0.0347602,0.0473237,0.0937968,0.171909,0.199233,0.196836,0.201327,0.229851,0.26974,0.331486,0.375117,0.437934,0.450551,0.48427,0.517805,0.58922,0.726944,0.932496,1.06254,1.16735,1.24263,1.30837,1.41725,1.64808,2.09619,2.89272,3.87883,4.26603,3.02843,1.3033,31.6477502,1.02865,10.81,0.0768,1.07218,5.83,15.809,2020,10,5,8,4,11,10/5/2020,8:04:11 AM,10/05/2020 8:04:11,6.5535,142.506,31.6477,57,2375,2748,3156,0,24030,4,0,0.926407,3.05768,8:04:11 AM,51.291215,2.63050833,,DGPS,08:04:11,34592.0,15.82852,2.096,5.9,2.182,,,,,,,,,0001_20201005_080301,2020-10-05 08:04:11,0.5410087260034833,0.5567208868318011,,-5.273279113168199,-5.83,27.44865653207768,188.06231644369095,202.96836902604292,3.613789047183732,346.61443067756085,319.16577414548317,12.627737546006752,1.8535122921835394,3.164972661250263,0.0454305,14.08163,15.36931,2.1513797,0.5260397968319561,4.0989907986051595,142.2717871477636,324.0,7.11,,-1.274935125410638,2.7961986946287682
0,0,0,0.00169465,0.0105011,0.0282867,0.0322107,0.0459814,0.0940532,0.177766,0.209921,0.207886,0.211237,0.238639,0.276553,0.338933,0.386221,0.459636,0.485889,0.537746,0.592013,0.687582,0.859544,1.10503,1.25176,1.37897,1.50518,1.66707,1.91096,2.27877,2.7828,3.35052,3.64787,3.16949,1.8965,0.754768,32.58198175,1.03379,10.82,0.0768,1.07288,5.89,15.81,2020,10,5,8,4,12,10/5/2020,8:04:12 AM,10/05/2020 8:04:12,6.5535,133.354,32.582,57,2410,2728,3199,0,24039,4,0,0.930428,2.88442,8:04:12 AM,51.29119333,2.63049833,,DGPS,08:04:12,34592.5,15.83007692,1.076923077,5.834615385,1.915384615,,,,,,,,,0001_20201005_080301,2020-10-05 08:04:12,0.5408342059336753,0.5565463201393832,,-5.333453679860616,-5.89,27.145308525080175,157.00291208008554,173.438835034539,3.4320709538577083,313.5461157569256,286.4008072318454,11.550655814695682,1.779079379096348,3.175285166438381,0.04048245,17.50295,12.819148,2.2194013,0.5397863165628592,4.0603898840712,127.7019610864378,273.0,7.11,,-1.2056726464723768,2.6904860547064144
0,0,0,0.00149516,0.00998173,0.0282223,0.0324998,0.0468343,0.0980678,0.189033,0.223923,0.222886,0.228524,0.263511,0.315099,0.400875,0.471707,0.573183,0.608694,0.667487,0.728589,0.826666,0.99528,1.20761,1.28411,1.34519,1.41669,1.53583,1.74679,2.06402,2.43626,2.7532,2.81588,2.41098,1.4644,0.573839,29.987357090000003,1.02498,10.82,0.0768,1.07148,5.85,15.811,2020,10,5,8,4,13,10/5/2020,8:04:13 AM,10/05/2020 8:04:13,6.5535,117.5,29.9873,57,2384,2733,3137,0,24033,4,0,0.923704,3.17454,8:04:13 AM,51.29117167,2.630485,,DGPS,08:04:13,34592.875,15.83070833,2.866666667,5.929166667,1.925,,,,,,,,,0001_20201005_080301,2020-10-05 08:04:13,0.5406596858638673,0.5563717544442405,,-5.293628245555759,-5.85,22.00069269035548,133.94641300177472,170.77097895581883,4.046474518453337,302.63018304792183,280.62949035756634,13.755484307118516,2.016665510523528,3.2423932618930973,0.039699189999999995,17.436399,10.018298999999999,2.4929599,0.49712041109925426,3.35391135556885,110.70430086451576,273.0,7.11,,-0.9640681442962192,2.803724123102487
0,0,0,0.00206939,0.0119967,0.0308603,0.0343053,0.0471622,0.0929544,0.169451,0.195595,0.192694,0.195542,0.221444,0.259844,0.322705,0.373042,0.446646,0.474051,0.522154,0.572627,0.655498,0.796535,0.97451,1.0413,1.07909,1.11381,1.17551,1.297,1.51252,1.87772,2.42691,2.99312,3.04987,2.12408,0.891967,27.17458329,1.03526,10.82,0.0768,1.07288,5.84,15.811,2020,10,5,8,4,14,10/5/2020,8:04:14 AM,10/05/2020 8:04:14,6.5535,129.454,27.1746,57,2374,2742,3154,0,24031,4,0,0.931751,2.8276,8:04:14 AM,51.29115333,2.63046667,,DGPS,08:04:14,34592.72,15.83148,3.664,5.944,2.098,,,,,,,,,0001_20201005_080301,2020-10-05 08:04:14,0.5404851657940593,0.556197189735597,,-5.283802810264403,-5.84,23.661315898533633,161.0401034738766,198.66373893838622,4.1437237282977835,332.0737274334862,308.4124115349526,14.034457291281331,2.0509278183957464,3.2193416897287706,0.04492639,13.538971,11.485947,2.1047389,0.4912523080807558,3.570046947362679,125.56184262317636,324.0,7.11,,-1.083791637175304,2.8770758057493744
0,0,0,0.00117396,0.00829015,0.0245319,0.0291207,0.043627,0.0937221,0.183919,0.217038,0.210205,0.208784,0.231532,0.265069,0.3299,0.38956,0.493669,0.562503,0.665361,0.783452,0.924157,1.12383,1.35223,1.4295,1.52238,1.66351,1.86371,2.15284,2.55986,3.06719,3.49998,3.38064,2.40438,1.09332,0.361428,33.140412809999994,1.02645,10.82,0.0768,1.07218,6.02,15.811,2020,10,5,8,4,15,10/5/2020,8:04:15 AM,10/05/2020 8:04:15,6.5535,125.688,33.1404,57,2411,2728,3218,0,24059,4,0,0.924421,3.14349,8:04:15 AM,51.29113333,2.63045167,,DGPS,08:04:15,34592.53846,15.83153846,4.215384615,5.826923077,2.175,,,,,,,,,0001_20201005_080301,2020-10-05 08:04:15,0.5403106457242512,0.5560226260026727,,-5.463977373997327,-6.02,26.845062940769267,137.86666522255007,156.71161126805598,3.518530140379238,283.8086022831325,256.9635393423632,10.572096735601832,1.8149728714608968,3.2062686779687963,0.03399601,20.164192,10.739748,2.2024768,0.5331131095329087,3.861895461996651,115.17990723687218,230.0,7.11,,-1.1024719795568143,2.614520639945957
0,0,0,0.00187602,0.0112477,0.0295775,0.0332631,0.047004,0.0960574,0.182771,0.220768,0.225061,0.234055,0.269156,0.315495,0.389701,0.445393,0.53119,0.564598,0.634112,0.708503,0.84253,1.07325,1.38395,1.55136,1.67383,1.78109,1.92281,2.13956,2.4573,2.89342,3.42794,3.70806,3.2057,1.87361,0.706397,35.580635720000004,1.01836,10.81,0.0768,1.07077,5.94,15.811,2020,10,5,8,4,16,10/5/2020,8:04:16 AM,10/05/2020 8:04:16,6.5535,122.243,35.5806,57,2394,2725,3140,0,24047,4,0,0.918348,3.40717,8:04:16 AM,51.29111333,2.63043833,,DGPS,08:04:16,34592.66667,15.83075,3.5,5.9875,3.004166667,,,,,,,,,0001_20201005_080301,2020-10-05 08:04:16,0.5401361256544431,0.5558480632346866,,-5.3841519367653135,-5.94,26.401201286998962,144.58647970822267,170.82483481825105,3.6029338307499916,307.50416974355613,281.10296845655716,11.647355224513358,1.8491721563649146,3.178410149587005,0.04270122,20.157503,12.921707,2.4587245,0.5268316489009905,3.8240453316489855,121.19898419859123,273.0,,,-1.100890078043105,2.679226851037426
0,0,0,0.00231357,0.0128519,0.0321933,0.0354614,0.0480666,0.0931004,0.167188,0.19248,0.191123,0.195872,0.223397,0.263012,0.323952,0.37062,0.434758,0.450032,0.474068,0.497132,0.527092,0.584295,0.665131,0.696645,0.742222,0.813712,0.931697,1.14185,1.50172,2.08274,2.84522,3.41376,3.17469,1.98389,0.743293,25.855578169999998,1.03012,10.82,0.0768,1.07077,5.84,15.812,2020,10,5,8,4,17,10/5/2020,8:04:17 AM,10/05/2020 8:04:17,6.5535,143.315,25.8556,57,2367,2722,3123,0,24032,4,0,0.928949,2.94805,8:04:17 AM,51.29109333,2.63042667,,DGPS,08:04:17,34592.88462,15.83111538,1.453846154,6.065384615,1.617307692,,,,,,,,,0001_20201005_080301,2020-10-05 08:04:17,0.5399616055846351,0.5556735014208587,,-5.284326498579141,-5.84,22.692732393369976,183.36606910264038,193.4931645728803,3.6907219490921013,328.07526517813596,305.382532784766,14.457283481384026,1.8839030521930675,3.2428941244322704,0.04735877,11.543094,12.160853,2.1042724,0.5205282880642297,3.841556720773513,133.43019969079288,273.0,7.11,,-1.2538109595609104,2.9087545557808836
0,0,0,0.00204681,0.0120063,0.0311488,0.0347261,0.0478882,0.0947909,0.173246,0.199535,0.195218,0.195651,0.217709,0.250629,0.307091,0.35244,0.422694,0.452991,0.507367,0.565645,0.654852,0.799054,0.974724,1.04325,1.10448,1.19727,1.36194,1.63399,2.03664,2.56383,3.11256,3.35974,2.8881,1.71222,0.653573,29.159046110000006,1.03306,10.81,0.0768,1.07218,6.27,15.812,2020,10,5,8,4,18,10/5/2020,8:04:18 AM,10/05/2020 8:04:18,6.5535,132.475,29.159,57,2395,2713,3223,0,24099,4,0,0.930377,2.88662,8:04:18 AM,51.29107333,2.63041833,,DGPS,08:04:18,34593.0,15.83158333,2.3,5.875,1.235416667,,,,,,,,,0001_20201005_080301,2020-10-05 08:04:18,0.5397870855148271,0.5554989405504132,,-5.714501059449587,-6.27,26.002278729981168,161.19107563019588,176.6179963512701,3.543033761586006,313.6006902518849,287.5984115219037,12.060507985028895,1.8249852129698123,3.208030936845893,0.04520191,15.318726999999999,11.726193,2.0689242,0.5312664059315647,4.018155198326,127.19752764148188,273.0,7.11,,-1.216797105715063,2.743318420699733
0,0,0,0.00172201,0.0107412,0.0290419,0.0329309,0.0466654,0.0957766,0.181934,0.216513,0.217054,0.223494,0.255355,0.297749,0.364946,0.412639,0.485391,0.505248,0.555447,0.607499,0.711391,0.900557,1.16778,1.32233,1.44566,1.55328,1.6846,1.87537,2.15208,2.54226,3.02468,3.39657,3.19248,2.1219,0.892353,32.52343801000001,1.02645,10.82,0.0768,1.07288,6.41,15.812,2020,10,5,8,4,19,10/5/2020,8:04:19 AM,10/05/2020 8:04:19,6.5535,128.756,32.5234,57,2413,2737,3232,0,24121,4,0,0.923815,3.16973,8:04:19 AM,51.29105333,2.63041333,,DGPS,08:04:19,34593.0,15.831,2.723076923,6.0,1.6,,,,,,,,,0001_20201005_080301,2020-10-05 08:04:19,0.539612565445019,0.5553243806125809,0.753688511627907,-5.854675619387419,-6.41,25.650324469744543,151.80783361853767,180.01046018648074,3.657786743352631,319.88779850513004,294.2374740353855,12.471101442886187,1.8709709653883904,3.1817731666647444,0.04150511,17.508893,12.627983,2.3450569,0.5228664899834825,3.829245783551907,125.08515742240321,273.0,,,-1.1279734020497256,2.743339033705788
0,0,0,0.00132261,0.00898915,0.026637,0.0327211,0.0510708,0.112182,0.228467,0.286632,0.296624,0.31194,0.366338,0.439332,0.557695,0.653528,0.791835,0.839318,0.923956,1.01357,1.16234,1.42031,1.73651,1.81396,1.78584,1.67094,1.51615,1.37472,1.29476,1.30267,1.39686,1.4898,1.40271,0.971289,0.432907,27.71392366,1.01175,10.82,0.0768,1.07288,6.04,15.812,2020,10,5,8,4,20,10/5/2020,8:04:20 AM,10/05/2020 8:04:20,6.5535,82.464,27.7139,57,2381,2775,3095,0,24062,4,0,0.91059,3.74652,8:04:20 AM,51.29103167,2.63040333,,DGPS,08:04:20,34593.0,15.831,5.466666667,6.358333333,2.377083333,,,,,,,,,0001_20201005_080301,2020-10-05 08:04:20,0.539438045375211,0.5551498215966019,0.7549066799999999,-5.4848501784033985,-6.04,16.51145068163303,77.62645663926746,129.32172040722602,4.484052068416124,274.1863626654308,257.67491198379776,16.605831186621877,2.164803030687851,3.3869031448712614,0.03694876,18.646879,5.693566,3.3365299,0.47224207288089604,2.68173396124003,78.3548622157057,72.2,273.0,,-0.47997799268878144,2.8675017788999315
0,0,0,0.00142692,0.00919928,0.0259594,0.0306807,0.0454642,0.0956589,0.186105,0.225641,0.228077,0.236218,0.271708,0.31938,0.399708,0.464867,0.565956,0.611161,0.687086,0.768692,0.900502,1.12336,1.41774,1.55347,1.63543,1.66348,1.66836,1.72375,1.92604,2.38397,3.1561,4.0229,4.13058,2.72768,1.03818,36.244530399999995,1.02351,10.82,0.0768,1.07148,5.93,15.812,2020,10,5,8,4,21,10/5/2020,8:04:21 AM,10/05/2020 8:04:21,6.5535,130.973,36.2445,57,2370,2736,3096,0,24045,4,0,0.92238,3.23193,8:04:21 AM,51.29101333,2.63038833,,DGPS,08:04:21,34593.56,15.831,3.776,6.288,2.22,,,,,,,,,0001_20201005_080301,2020-10-05 08:04:21,0.539263525305403,0.5549752634917269,0.7566748,-5.375024736508273,-5.93,26.050347667699846,155.92885582092467,195.60613077917725,4.047869348506781,326.9543765081388,300.90402884043897,12.550864221805902,2.01716272548103,3.1554369388513854,0.0365856,18.628997,15.07544,2.5035078,0.49703475390856494,3.5480390954539387,126.42379818273348,324.0,,,-1.0420811093533349,2.7704527564338455
0,0,0,0.0017509,0.0107071,0.0289434,0.0332554,0.0474756,0.0966688,0.181533,0.211933,0.208295,0.208948,0.232648,0.267504,0.332585,0.38816,0.479,0.530788,0.618995,0.717697,0.88502,1.17547,1.59044,1.85974,2.07801,2.26617,2.47393,2.73781,3.07462,3.41894,3.63948,3.42181,2.58852,1.41619,0.5598,37.7828372,1.02277,10.79,0.0768,1.07288,6.48,15.811,2020,10,5,8,4,22,10/5/2020,8:04:22 AM,10/05/2020 8:04:22,6.5535,131.617,37.7828,57,2399,2690,3221,0,24132,4,0,0.920509,3.31315,8:04:22 AM,51.29099667,2.63037333,,DGPS,08:04:22,34594.48,15.831,4.504,5.968,1.052,,,,,,,,,0001_20201005_080301,2020-10-05 08:04:22,0.539089005235595,0.5548007062872209,0.7585114799999999,-5.9251992937127795,-6.48,30.74384675642417,133.72859174559022,147.1927447692434,3.162203012610797,287.57771996459627,256.8338732081721,9.353992759689534,1.6609299913158453,3.162008983598695,0.041401400000000005,23.90663,11.6258,2.2090058,0.562347962518591,4.2749746811362135,118.41391882888612,230.0,7.11,,-1.151615060254914,2.512322333125344
0,0,0,0.00235349,0.0133842,0.0338836,0.0372139,0.0502011,0.097269,0.174157,0.19901,0.193801,0.195194,0.21823,0.251025,0.305701,0.347833,0.416444,0.448303,0.509431,0.576204,0.695805,0.907022,1.18967,1.33275,1.39531,1.40129,1.41475,1.49588,1.71039,2.11987,2.78709,3.45402,3.37271,2.12738,0.802405,30.27598029,1.03232,10.82,0.0768,1.07359,6.73,15.811,2020,10,5,8,4,23,10/5/2020,8:04:23 AM,10/05/2020 8:04:23,6.5535,132.663,30.276,57,2418,2741,3232,0,24171,4,0,0.928497,2.96754,8:04:23 AM,51.29097833,2.63036333,,DGPS,08:04:23,34594.44,15.831,1.168,6.136,0.992,,,,,,,,,0001_20201005_080301,2020-10-05 08:04:23,0.538914485165787,0.5546261499723654,0.7604077499999999,-6.175373850027635,-6.73,27.08777343485378,157.64768794526913,189.5637936453831,3.8374646124984526,322.3946481536669,295.3068747188131,11.901851177581188,1.9401534466109247,3.197329496589514,0.04962129,15.613119000000001,12.543605,2.069635,0.5104789145859248,3.8833862686206158,127.37326168304375,273.0,7.11,,-1.1389578760560808,2.76073370497214
0,0,0,0.00211879,0.0123607,0.0319792,0.0357698,0.0500303,0.100865,0.189237,0.225608,0.229384,0.238566,0.275443,0.325703,0.404697,0.467025,0.558545,0.592331,0.657725,0.728075,0.84447,1.03747,1.251,1.27803,1.22496,1.13398,1.05635,1.02103,1.03994,1.11205,1.24085,1.37041,1.35878,1.01668,0.497078,21.60854079,1.03306,10.82,0.0768,1.07288,6.41,15.81,2020,10,5,8,4,24,10/5/2020,8:04:24 AM,10/05/2020 8:04:24,6.5535,94.6526,21.6085,56,2383,2770,3132,0,24121,4,0,0.929767,2.91286,8:04:24 AM,51.29095667,2.63035333,,DGPS,08:04:24,34593.8,15.8304,4.448,6.604,2.132,,,,,,,,,0001_20201005_080301,2020-10-05 08:04:24,0.5387399650959789,0.5544515945364598,0.76235024,-5.855548405463541,-6.41,16.524950393504827,85.74981336817014,157.8559508896618,5.019337379587933,298.6219060238592,282.0969556303544,18.070971404624203,2.327496921490893,3.388372932890446,0.04645869,13.535956,5.483798,2.5423281,0.4463513019647147,2.6938777305603407,85.1299060750943,273.0,72.2,,-0.5659399547434795,2.9990734617873334
0,0,0,0.0019103,0.0116563,0.0310007,0.0347221,0.0479112,0.0955205,0.175472,0.201149,0.19667,0.197507,0.221323,0.257807,0.320962,0.374788,0.454476,0.486743,0.534152,0.583622,0.658781,0.789945,0.960748,1.02731,1.06672,1.09546,1.14187,1.25261,1.48374,1.89508,2.52584,3.15248,3.22428,2.19318,0.876366,27.571802100000003,1.03012,10.82,0.0768,1.07007,6.3,15.808,2020,10,5,8,4,25,10/5/2020,8:04:25 AM,10/05/2020 8:04:25,6.5535,131.926,27.5718,57,2386,2747,3132,0,24103,4,0,0.92956,2.92176,8:04:25 AM,51.29093833,2.63034667,,DGPS,08:04:25,34593.04,15.8262,3.552,6.604,2.6,,,,,,,,,0001_20201005_080301,2020-10-05 08:04:25,0.5385654450261709,0.554277039968824,0.76432168,-5.745722960031176,-6.3,23.739666940433054,166.1871208692933,200.47652657002095,4.14352984071309,332.1814739393677,308.4418069989347,13.992676256700177,2.0508603121574858,3.220852616286342,0.0445673,13.431257,11.972146,2.1238318,0.49126380149493987,3.5880824914078,126.99654898691445,324.0,7.11,,-1.102297044419274,2.8842777148569994
0,0,0,0.00215083,0.0124021,0.0312661,0.0338589,0.0454668,0.0890552,0.161752,0.188016,0.186012,0.189209,0.211256,0.239994,0.286045,0.317719,0.37239,0.393207,0.446479,0.504436,0.61458,0.801158,1.01864,1.08773,1.11567,1.17312,1.32888,1.64536,2.17771,2.92924,3.70011,4.00228,3.38242,1.99859,0.725999,31.41220193,1.0382,10.82,0.0768,1.07218,6.59,15.808,2020,10,5,8,4,26,10/5/2020,8:04:26 AM,10/05/2020 8:04:26,6.5535,151.436,31.4122,57,2420,2707,3229,0,24149,4,0,0.935009,2.68797,8:04:26 AM,51.29092333,2.630335,,DGPS,08:04:26,34593.4,15.82628,5.864,6.336,2.434,,,,,,,,,0001_20201005_080301,2020-10-05 08:04:26,0.5383909249563629,0.5541024862588011,0.76629911,-6.035897513741199,-6.59,30.83360182076135,175.0078712477311,174.17106172740682,3.2002222124636113,317.2363374513954,286.402735630634,10.28865648896682,1.678172084390407,3.1652487628275834,0.04581903,15.6086,13.809399,1.9483839,0.5589975859258288,4.530199185076846,137.81199875513846,273.0,7.11,,-1.364324993360814,2.6502960714612427
0,0,0,0.00159369,0.0103273,0.028953,0.033669,0.0487243,0.100846,0.192058,0.225859,0.222314,0.224776,0.254476,0.298591,0.377371,0.444486,0.5476,0.596137,0.675994,0.762294,0.918223,1.20071,1.62464,1.91512,2.15656,2.33644,2.46277,2.55249,2.64037,2.72918,2.79362,2.66594,2.17057,1.32749,0.570655,35.110847289999995,1.0213,10.82,0.0768,1.07288,6.82,15.808,2020,10,5,8,4,27,10/5/2020,8:04:27 AM,10/05/2020 8:04:27,6.5535,113.143,35.1108,57,2434,2714,3215,0,24184,4,0,0.919186,3.37066,8:04:27 AM,51.29090333,2.63032333,,DGPS,08:04:27,34593.16,15.82764,4.6,6.416,1.97,,,,,,,,,0001_20201005_080301,2020-10-05 08:04:27,0.5382164048865548,0.5539279333957586,0.76825918,-6.2660720666042415,-6.82,26.006275417016642,118.16996913769192,142.71734245129602,3.334807083049694,285.2803427016513,259.27406728463467,10.969673208758849,1.7376033046249422,3.2082110484878124,0.04087399,23.118528,9.528275,2.4231702999999998,0.5476015167454742,3.8240198248960966,108.18052766715896,230.0,7.11,,-0.992935702693787,2.589246588968159
0,0,0,0.00152609,0.00965462,0.0268281,0.0314404,0.0461418,0.0960213,0.184714,0.222554,0.2238,0.229741,0.259852,0.297728,0.359201,0.402503,0.473028,0.495409,0.546283,0.599122,0.69401,0.862175,1.09486,1.22427,1.33711,1.44527,1.57889,1.82304,2.28029,3.04202,4.04506,4.9157,4.89168,3.32211,1.34928,38.41131231000001,1.02571,10.82,0.0768,1.07077,6.69,15.808,2020,10,5,8,4,28,10/5/2020,8:04:28 AM,10/05/2020 8:04:28,6.5535,148.6,38.4113,57,2418,2714,3193,0,24165,4,0,0.924974,3.1196,8:04:28 AM,51.29088333,2.630315,,DGPS,08:04:28,34595.12,15.8278,1.936,6.72,1.926,,,,,,,,,0001_20201005_080301,2020-10-05 08:04:28,0.5380418848167468,0.5537533813690914,0.77017854,-6.136246618630909,-6.69,30.96997078732063,187.83364919661287,188.62791932392852,3.245733414242105,338.4927978883683,307.52282710104765,10.92970995074203,1.6985445101308188,3.115807923022988,0.038008810000000004,17.495777,18.52383,2.3536965,0.5550646591068708,4.407828320015328,145.81107773265228,273.0,,,-1.3525796329615778,2.6789573277668124
0,0,0,0.00191897,0.0117713,0.0315285,0.0356524,0.0500693,0.10129,0.189206,0.221554,0.218297,0.221224,0.249134,0.288274,0.354825,0.406834,0.489055,0.524032,0.588412,0.65724,0.782037,1.00718,1.3402,1.56483,1.75616,1.9105,2.04376,2.18424,2.36247,2.59988,2.90195,3.08258,2.78802,1.81872,0.762588,33.54543247,1.02645,10.82,0.0768,1.07218,6.69,15.809,2020,10,5,8,4,29,10/5/2020,8:04:29 AM,10/05/2020 8:04:29,6.5535,131.085,33.5454,57,2409,2725,3189,0,24165,4,0,0.924421,3.14349,8:04:29 AM,51.29086667,2.63030833,,DGPS,08:04:29,34596.72,15.828,2.016,6.744,2.302,,,,,,,,,0001_20201005_080301,2020-10-05 08:04:29,0.5378673647469387,0.553578830168223,0.77203314,-6.136421169831777,-6.69,26.370270518322137,135.3245289710769,165.52090834565854,3.534043959568439,308.9695294106244,282.59925889230226,11.716585508516172,1.8213199855196787,3.1935575858656504,0.045218770000000005,19.809996,11.353857999999999,2.3363597,0.5319416870639604,3.875302174734805,118.21548910817546,273.0,7.11,,-1.078329997820668,2.6781911834796785
0,0,0,0.00183486,0.011352,0.0309299,0.0357183,0.0513259,0.104939,0.198056,0.233455,0.230636,0.233873,0.264705,0.309735,0.389078,0.456884,0.560481,0.609462,0.688662,0.774328,0.922342,1.18307,1.5567,1.78909,1.96436,2.05676,2.08391,2.10164,2.17283,2.32188,2.53004,2.61399,2.27854,1.42498,0.598463,32.784049960000004,1.02277,10.79,0.0768,1.07218,6.75,15.809,2020,10,5,8,4,30,10/5/2020,8:04:30 AM,10/05/2020 8:04:30,6.5535,109.306,32.7841,57,2417,2712,3200,0,24173,4,0,0.921113,3.28691,8:04:30 AM,51.29084833,2.6303,,DGPS,08:04:30,34596.84,15.82844,4.16,6.7,2.17,,,,,,,,,0001_20201005_080301,2020-10-05 08:04:30,0.5376928446771307,0.5534042797826075,0.77381082,-6.196595720217393,-6.75,23.722196972607676,115.76997167755614,154.4505076850474,3.7039541409223955,294.83367962311513,271.11148265050747,12.428599255101176,1.8890662365372934,3.237060833307341,0.04411676,20.785515,9.446013,2.5084052,0.5195976754770637,3.529662682741897,106.00169430712963,273.0,7.11,,-0.9195274126471928,2.694418689828378
0,0,0,0.00195437,0.0114347,0.0294114,0.0325717,0.045126,0.0902013,0.166863,0.194781,0.191763,0.192542,0.212939,0.241749,0.294752,0.340874,0.417937,0.461163,0.530376,0.606979,0.724831,0.918087,1.15495,1.23954,1.26292,1.26595,1.30991,1.46252,1.81071,2.49225,3.62177,4.88583,5.00437,3.14313,1.13598,35.49616547000001,1.02938,10.82,0.0768,1.07218,6.84,15.809,2020,10,5,8,4,31,10/5/2020,8:04:31 AM,10/05/2020 8:04:31,6.5535,150.553,35.4962,57,2434,2703,3213,0,24188,4,0,0.927068,3.02912,8:04:31 AM,51.29083,2.63028833,,DGPS,08:04:31,34595.48,15.82864,5.096,6.7,1.912,,,,,,,,,0001_20201005_080301,2020-10-05 08:04:31,0.5375183246073227,0.5532297302017324,0.7754954399999999,-6.286770269798268,-6.84,32.40143543493426,195.38253750058615,196.95016689604472,3.4648886451702365,337.4378327311792,305.0363972962449,10.414286533965216,1.7928089876749973,3.1229161068282867,0.04280047,15.658123,17.79108,2.004162,0.5372239418121904,4.366641007534896,146.97406261119454,324.0,7.11,,-1.3331339685531802,2.677396962090494
0,0,0,0.00158897,0.0100637,0.027531,0.0314494,0.0447293,0.091099,0.170467,0.198184,0.192883,0.193488,0.216194,0.24933,0.305716,0.349903,0.419215,0.445905,0.492665,0.541411,0.618131,0.750213,0.926557,1.01411,1.09327,1.17844,1.29827,1.51332,1.91253,2.61418,3.73363,5.01659,5.33008,3.49108,1.2486,35.720823370000005,1.03012,10.82,0.0768,1.07218,6.8,15.808,2020,10,5,8,4,32,10/5/2020,8:04:32 AM,10/05/2020 8:04:32,6.5535,163.556,35.7208,57,2416,2712,3197,0,24181,4,0,0.92773,3.00058,8:04:32 AM,51.29081333,2.63027667,,DGPS,08:04:32,34595.8,15.8282,2.96,6.748,2.458,,,,,,,,,0001_20201005_080301,2020-10-05 08:04:32,0.5373438045375147,0.5530551814151192,0.7770833069306932,-6.246944818584881,-6.8,32.879045596444975,203.45120101408708,190.99320785637565,3.0717658650664403,343.540137661795,310.66109206535,10.448604314078388,1.619068255713858,3.1157968460633794,0.039183670000000004,14.818217,18.81998,2.0434427,0.57056607422338,4.700548274368679,154.48613023979087,324.0,7.11,,-1.4555023677765595,2.665191002313286
0,0,0,0.00256598,0.0136982,0.0335651,0.0367224,0.0491121,0.0938498,0.166819,0.192619,0.191551,0.195821,0.221162,0.256538,0.316329,0.365206,0.442893,0.484747,0.553778,0.629495,0.758108,0.979337,1.29052,1.48313,1.6183,1.70315,1.77705,1.87114,2.01304,2.2303,2.56151,2.86922,2.72877,1.81041,0.76684,30.70729658,1.02718,10.82,0.0768,1.07148,6.82,15.808,2020,10,5,8,4,33,10/5/2020,8:04:33 AM,10/05/2020 8:04:33,6.5535,132.16,30.7073,57,2418,2708,3193,0,24185,4,0,0.925691,3.08861,8:04:33 AM,51.29079667,2.63026667,,DGPS,08:04:33,34593.08,15.82684,1.328,6.8,2.03,,,,,,,,,0001_20201005_080301,2020-10-05 08:04:33,0.5371692844677066,0.5528806334123261,0.7785593799999999,-6.267119366587674,-6.82,26.761251069043436,135.53051321580858,172.9436843075421,3.701948748577537,314.1184612157425,287.35721014669906,11.737809282732105,1.888284922035917,3.196870716247325,0.049829280000000004,17.834988,10.73675,2.0857293,0.5197383927308695,3.817719234862712,118.8200836047503,273.0,7.11,,-1.0501287175586431,2.6991853549764224
0,0,0,0.00208456,0.0124591,0.0326467,0.0361756,0.04896,0.0962994,0.175199,0.201422,0.199537,0.204197,0.234194,0.276942,0.345642,0.39794,0.475935,0.504116,0.560855,0.620704,0.738301,0.95392,1.27494,1.49387,1.67034,1.79088,1.87821,1.95788,2.077,2.26606,2.56977,2.80417,2.53983,1.55913,0.653019,30.652628359999994,1.03012,10.82,0.0768,1.07148,6.97,15.808,2020,10,5,8,4,34,10/5/2020,8:04:34 AM,10/05/2020 8:04:34,6.5535,125.322,30.6526,57,2432,2700,3221,0,24208,4,0,0.928339,2.97432,8:04:34 AM,51.29078,2.63025667,,DGPS,08:04:34,34593.16,15.82728,2.416,6.8,1.894,,,,,,,,,0001_20201005_080301,2020-10-05 08:04:34,0.5369947643978986,0.5527060861829489,0.77990976,-6.417293913817051,-6.97,25.208982059963745,130.3831055865668,165.36365655555355,3.622292513289755,305.8865741331227,280.67759207315896,12.134031172124313,1.8569030538620033,3.2149330717687334,0.04719036,18.263011,10.125919,2.216508,0.5254219850621303,3.7714450499941194,115.07136719788416,273.0,7.11,,-1.0394949678198546,2.6979669556555046
0,0,0,0.00323212,0.0164225,0.0385987,0.0411793,0.0535271,0.0997022,0.172931,0.19661,0.194535,0.198728,0.225628,0.264337,0.327187,0.378732,0.457613,0.498829,0.564814,0.636491,0.747734,0.931417,1.1726,1.29846,1.39027,1.47396,1.5934,1.78857,2.08557,2.4925,2.9803,3.32443,3.11502,2.0943,0.903853,31.761480920000004,1.03012,10.81,0.0768,1.07077,7.03,15.809,2020,10,5,8,4,35,10/5/2020,8:04:35 AM,10/05/2020 8:04:35,6.5535,129.686,31.7615,57,2427,2705,3218,0,24217,4,0,0.928949,2.94805,8:04:35 AM,51.29076167,2.63024833,,DGPS,08:04:35,34593.0,15.82828,1.856,6.84,1.176,,,,,,,,,0001_20201005_080301,2020-10-05 08:04:35,0.5368202443280906,0.5525315397166238,0.7811333399999999,-6.477468460283377,-7.03,26.766640444828635,152.85678382746988,181.3866766717553,3.704424995208191,320.84459976263923,294.0779593178106,11.986734025286577,1.889249623248889,3.196297991879639,0.05825332,17.132228,12.417903,2.1530966,0.5195646524616881,3.921640186697797,125.62812962648701,273.0,7.11,,-1.1388847079153965,2.7394518462420065
0,0,0,0.00208387,0.0121494,0.0308943,0.0337359,0.045949,0.0906519,0.165317,0.190629,0.186851,0.188382,0.211082,0.24429,0.298683,0.342133,0.409645,0.438483,0.488927,0.54286,0.618922,0.739368,0.870267,0.888352,0.885159,0.895697,0.959436,1.12595,1.46519,2.07022,2.97994,3.89152,3.98151,2.6842,1.03052,29.00899737,1.03085,10.82,0.0768,1.07077,6.97,15.809,2020,10,5,8,4,36,10/5/2020,8:04:36 AM,10/05/2020 8:04:36,6.5535,142.354,29.009,57,2420,2706,3189,0,24208,4,0,0.929612,2.91953,8:04:36 AM,51.290745,2.63023833,,DGPS,08:04:36,34592.84,15.829,3.952,6.964,2.172,,,,,,,,,0001_20201005_080301,2020-10-05 08:04:36,0.5366457242582825,0.5523569940030286,0.7822166199999999,-6.417643005996971,-6.97,26.791621423248994,195.68381505411867,203.1352339151374,3.7038265536765094,341.66477591173424,314.8731544884852,12.752672580512332,1.8890165402802017,3.1879758199857875,0.04512757,12.398475999999999,14.56769,1.9977038,0.5196066247980589,4.04806484438801,142.15301063428944,324.0,72.2,7.11,-1.2906658525814017,2.829130323897088
0,0,0,0.00250613,0.0134612,0.032564,0.0350994,0.0471708,0.0912563,0.164089,0.189853,0.188522,0.193178,0.221531,0.264427,0.334172,0.390241,0.466891,0.492499,0.543151,0.595462,0.699197,0.883833,1.12888,1.24886,1.33106,1.41224,1.5313,1.7388,2.10864,2.77566,3.90324,5.34782,6.09215,4.73206,2.20747,41.40728383,1.02645,10.81,0.0768,1.07288,6.91,15.809,2020,10,5,8,4,37,10/5/2020,8:04:37 AM,10/05/2020 8:04:37,6.5535,174.15,41.4073,57,2424,2701,3191,0,24199,4,0,0.923815,3.16973,8:04:37 AM,51.29072833,2.63023,,DGPS,08:04:37,34592.28,15.829,3.544,6.964,2.4,,,,,,,,,0001_20201005_080301,2020-10-05 08:04:37,0.5364712041884745,0.5521824490318838,0.78315271,-6.357817550968116,-6.91,35.94410705751491,208.46775195295334,200.61200571704944,3.1398498539923674,359.35246036373326,323.4083533062184,9.997534777779453,1.650695571830359,3.0724677156653426,0.04853133,16.956473,22.28274,2.1195395,0.5643461408705109,4.724804321665059,160.51422841087157,324.0,7.11,,-1.4329029747740758,2.632438012576784
0,0,0,0.00217134,0.0128816,0.0338304,0.0380835,0.0528364,0.103879,0.186504,0.206127,0.191697,0.183979,0.198158,0.225401,0.279744,0.329519,0.407563,0.449821,0.514612,0.585883,0.696879,0.888203,1.15894,1.32977,1.48111,1.61562,1.74878,1.90368,2.11853,2.39681,2.70203,2.81426,2.39698,1.40991,0.563713,29.22790524,1.03159,10.82,0.0768,1.07359,7.02,15.809,2020,10,5,8,4,38,10/5/2020,8:04:38 AM,10/05/2020 8:04:38,6.5535,130.821,29.2279,57,2427,2706,3227,0,24216,4,0,0.927836,2.99602,8:04:38 AM,51.29071167,2.63022167,,DGPS,08:04:38,34592.84,15.829,4.696,6.9,2.24,,,,,,,,,0001_20201005_080301,2020-10-05 08:04:38,0.5362966841186665,0.5520079047929547,0.78393252,-6.467992095207045,-7.02,26.880653981947436,137.49227339426207,162.67647787375444,3.479295349276149,302.75458489258006,275.8739309106326,11.262917379015578,1.7987951511769023,3.2242216043552916,0.04888334,17.296201,9.886893,1.9959278999999999,0.536110547564105,4.053360766022538,118.0458350606667,273.0,7.11,,-1.1394506985193968,2.678497143737952
0,0,0,0.00248625,0.0134854,0.0332471,0.0363907,0.0489239,0.0938926,0.167052,0.190651,0.186395,0.187374,0.208652,0.239789,0.295054,0.343189,0.420123,0.46299,0.530381,0.604727,0.721278,0.914882,1.16214,1.27556,1.34046,1.39682,1.50742,1.71708,2.03675,2.43603,2.84563,3.05305,2.6967,1.69805,0.707934,29.574586949999997,1.036,10.8,0.0768,1.07218,7.07,15.81,2020,10,5,8,4,39,10/5/2020,8:04:39 AM,10/05/2020 8:04:39,6.5535,124.548,29.5746,57,2430,2708,3212,0,24223,4,0,0.933024,2.77298,8:04:39 AM,51.29069333,2.63021333,,DGPS,08:04:39,34592.72,15.8286,5.992,6.928,1.65,,,,,,,,,0001_20201005_080301,2020-10-05 08:04:39,0.5361221640488585,0.5518333612760525,0.7845464444444444,-6.518166638723947,-7.07,26.936538213255503,147.9760038698912,174.49789054503663,3.6618335520323213,312.8483216836122,285.9117834703567,11.614273490038121,1.872566215189027,3.201089055397849,0.049218750000000006,16.526641,11.001363999999999,1.9973632000000001,0.5225774919253399,3.927969969564277,122.58297048365687,273.0,7.11,,-1.1285710593798395,2.711191617417303
0,0,0,0.00206705,0.0122722,0.0323588,0.0364691,0.0503982,0.0997602,0.182262,0.209516,0.205217,0.207156,0.234113,0.274561,0.346561,0.409194,0.506534,0.558756,0.643847,0.737922,0.900665,1.18339,1.5725,1.79826,1.9503,2.0482,2.14844,2.30015,2.52738,2.78492,3.06439,3.18587,2.78128,1.65663,0.648522,35.29986155,1.02645,10.81,0.0768,1.07077,7.08,15.81,2020,10,5,8,4,40,10/5/2020,8:04:40 AM,10/05/2020 8:04:40,6.5535,127.128,35.2999,57,2436,2698,3211,0,24225,4,0,0.925636,3.09096,8:04:40 AM,51.29067667,2.63020333,,DGPS,08:04:40,34593.0,15.82972,1.8,7.0,2.072,,,,,,,,,0001_20201005_080301,2020-10-05 08:04:40,0.5359476439790505,0.5516588184710365,0.7849951287128714,-6.528341181528964,-7.08,27.862050398233578,130.44090599378444,159.64770654586601,3.509962090652883,300.4610142014582,272.59896380322465,10.783880220836407,1.8114554487855519,3.184788062211573,0.046698050000000005,21.661264,11.336692,2.2552075,0.5337633951161679,3.8985684208574614,116.03225660181961,273.0,7.11,,-1.0463155004437248,2.613324260613405
0,0,0,0.00231904,0.0129973,0.0320529,0.0344675,0.0464161,0.0909179,0.165197,0.192245,0.189423,0.190916,0.212048,0.243514,0.300113,0.349811,0.427803,0.468348,0.532011,0.601285,0.716715,0.911958,1.17907,1.33514,1.47619,1.62556,1.79603,1.97661,2.15991,2.35776,2.55266,2.6255,2.32467,1.55884,0.683094,29.371591739999996,1.03453,10.82,0.0768,1.07218,7.12,15.81,2020,10,5,8,4,41,10/5/2020,8:04:41 AM,10/05/2020 8:04:41,6.5535,129.905,29.3716,57,2446,2692,3227,0,24232,4,0,0.9317,2.82976,8:04:41 AM,51.29066167,2.63019333,,DGPS,08:04:41,34592.6,15.83,2.592,7.0,2.532,,,,,,,,,0001_20201005_080301,2020-10-05 08:04:41,0.5357731239092424,0.5514842763678148,0.7852712900000001,-6.568515723632185,-7.12,26.50245806872799,135.21054680002135,163.11560978721744,3.5229638317364853,307.8221881742703,281.3197301055423,11.614854266574245,1.8167896635804612,3.2031718420436084,0.04736924,17.56439,9.744764,2.0150685,0.5327775393652066,3.912944073321093,117.56894972463516,273.0,7.11,,-1.084100860018582,2.6774448066126872
0,0,0,0.00243188,0.0135678,0.0331074,0.0351386,0.0464713,0.089706,0.160473,0.185006,0.181254,0.183739,0.206219,0.239365,0.294381,0.339981,0.408319,0.435999,0.478953,0.523556,0.592728,0.709211,0.865594,0.948092,1.0376,1.16038,1.35113,1.63855,2.02198,2.46112,2.86626,3.02364,2.6599,1.69857,0.71042,27.602842980000002,1.03673,10.81,0.0768,1.07218,7.1,15.81,2020,10,5,8,4,42,10/5/2020,8:04:42 AM,10/05/2020 8:04:42,6.5535,133.338,27.6029,57,2423,2709,3193,0,24228,4,0,0.933685,2.74462,8:04:42 AM,51.290645,2.63018333,,DGPS,08:04:42,34593.0,15.83,3.4,7.088,2.52,,,,,,,,,0001_20201005_080301,2020-10-05 08:04:42,0.5355986038394344,0.5513097349563462,0.7853670707070707,-6.548690265043653,-7.1,25.77350167756611,159.96330168849687,174.78292746850437,3.4516442493203945,316.75340711472126,290.97990543715514,12.289886375448596,1.7872837779034856,3.208450377292317,0.04910708,14.633212,10.95879,1.9617339,0.5382536531046511,4.068590187055595,127.70408686035987,273.0,7.11,,-1.227509857879547,2.7465747495966752
0,0,0,0.00214694,0.0127176,0.0329202,0.0362614,0.049301,0.097152,0.176476,0.200325,0.194083,0.193927,0.216583,0.250889,0.309477,0.35567,0.427252,0.457385,0.51727,0.582282,0.704174,0.925703,1.24671,1.45115,1.58907,1.64753,1.65741,1.66381,1.72176,1.85283,2.03451,2.08704,1.77734,1.06984,0.445526,25.986521140000004,1.02938,10.82,0.0768,1.07359,7.09,15.809,2020,10,5,8,4,43,10/5/2020,8:04:43 AM,10/05/2020 8:04:43,6.5535,107.375,25.9865,57,2430,2695,3216,0,24226,4,0,0.925853,3.08158,8:04:43 AM,51.29062833,2.63017333,,DGPS,08:04:43,34593.0,15.8294,4.048,7.052,2.34,,,,,,,,,0001_20201005_080301,2020-10-05 08:04:43,0.5354240837696264,0.5511351942266409,0.7852877100000001,-6.538864805773359,-7.09,23.052867816888423,115.05614275861888,152.72786526681773,3.6633055782180657,291.8831801296459,268.8303123127575,12.661469386286667,1.8731460498840566,3.2773926025508873,0.04778474,16.444336,7.414256,2.0801444,0.5224724877115213,3.632815314947101,104.87036461451554,273.0,7.11,,-0.962080129105219,2.7235369632704227
0,0,0,0.00205,0.0122946,0.0318209,0.0347379,0.0470876,0.0938079,0.173106,0.201209,0.199368,0.202187,0.228202,0.26614,0.329997,0.382617,0.464241,0.50164,0.565833,0.635478,0.748931,0.938702,1.16545,1.23155,1.2308,1.20667,1.22133,1.33518,1.61076,2.10401,2.81848,3.42909,3.23186,1.97389,0.750248,29.368767899999998,1.03379,10.82,0.0768,1.07359,7.19,15.809,2020,10,5,8,4,44,10/5/2020,8:04:44 AM,10/05/2020 8:04:44,6.5535,126.883,29.3688,57,2448,2695,3247,0,24243,4,0,0.929818,2.91064,8:04:44 AM,51.29061167,2.63016333,,DGPS,08:04:44,34592.8,15.82808,4.336,7.0,2.962,,,,,,,,,0001_20201005_080301,2020-10-05 08:04:44,0.5352495636998182,0.5509606541687625,0.7850283168316832,-6.639039345831238,-7.19,24.756203848968745,158.77847203020687,192.55461309614714,4.097174477490323,320.367722769649,295.6115189206802,12.94090663997317,2.034629331053576,3.212857656861281,0.0461655,14.960575,12.203568,2.1584594,0.49403506024725846,3.6005113871598193,124.01288778234427,273.0,72.2,7.11,-1.0769890018009984,2.8199279934985735
0,0,0,0.00205387,0.0121692,0.0315865,0.0349563,0.0477035,0.0939314,0.170946,0.197922,0.194567,0.19658,0.219583,0.251143,0.299506,0.331338,0.379543,0.385636,0.409457,0.43271,0.47978,0.569627,0.693186,0.75337,0.807721,0.872328,0.975455,1.16834,1.51785,2.09562,2.88709,3.58312,3.56528,2.40416,0.952384,27.01664277,1.04188,10.82,0.0768,1.07148,7.21,15.809,2020,10,5,8,4,45,10/5/2020,8:04:45 AM,10/05/2020 8:04:45,6.5535,142.043,27.0166,56,2433,2697,3208,0,24245,4,0,0.938934,2.52042,8:04:45 AM,51.290595,2.630155,,DGPS,08:04:45,34593.0,15.8292,2.552,7.12,2.346,,,,,,,,,0001_20201005_080301,2020-10-05 08:04:45,0.5350750436300102,0.550786114772829,0.7845925800000001,-6.659213885227171,-7.21,25.092940613750855,193.20071320647278,194.11180409035288,3.393607814362337,339.82748819180216,314.7345475780513,13.542752657915978,1.7628198480369788,3.2128361741803713,0.04580957000000001,11.540623,13.392034,2.0381762,0.5428366658967277,4.212278079221755,141.94807177068492,273.0,7.11,,-1.3571208100170333,2.8548793199315643
0,0,0,0.00259534,0.0142486,0.0355674,0.0391036,0.0524072,0.100752,0.179892,0.206256,0.204448,0.20879,0.237398,0.277807,0.344088,0.395932,0.474538,0.508701,0.574,0.644606,0.776019,1.01001,1.33959,1.54045,1.6723,1.74263,1.79825,1.87867,1.99949,2.13032,2.26591,2.28419,1.96656,1.21454,0.519017,28.63907614,1.02865,10.82,0.0768,1.07077,7.17,15.809,2020,10,5,8,4,46,10/5/2020,8:04:46 AM,10/05/2020 8:04:46,6.5535,109.847,28.6391,57,2433,2697,3183,0,24240,4,0,0.927624,3.00515,8:04:46 AM,51.29058,2.63015,,DGPS,08:04:46,34593.08,15.828,1.744,7.196,1.964,,,,,,,,,0001_20201005_080301,2020-10-05 08:04:46,0.5349005235602022,0.5506115760290138,0.78399438,-6.619388423970986,-7.17,23.361887345173688,118.34152223079239,153.34074219184356,3.653751739584608,293.6236883301518,270.26180098497815,12.568491748626263,1.8693786109117907,3.2642675250802387,0.05241134,18.089574,8.250217,2.2468738,0.5231551229080484,3.6379611006656205,106.30983241733,273.0,7.11,,-0.9685869745070832,2.7142123510105023
0,0,0,0.00154877,0.0100782,0.0279951,0.0320265,0.0456499,0.0936929,0.176256,0.204142,0.196616,0.194973,0.215545,0.24658,0.301046,0.342461,0.406755,0.42732,0.46836,0.510138,0.58365,0.717474,0.908828,1.02075,1.13439,1.2714,1.47208,1.81776,2.43537,3.50018,5.02725,6.39498,6.16114,3.77665,1.41052,41.53360537,1.02351,10.82,0.0768,1.07148,7.33,15.809,2020,10,5,8,4,47,10/5/2020,8:04:47 AM,10/05/2020 8:04:47,6.5535,182.041,41.5336,57,2457,2678,3278,0,24264,4,0,0.92238,3.23193,8:04:47 AM,51.290565,2.63014167,,DGPS,08:04:47,34594.12,15.82868,1.68,7.1,1.83,,,,,,,,,0001_20201005_080301,2020-10-05 08:04:47,0.5347260034903942,0.5504370379275471,0.78324501,-6.779562962072453,-7.33,39.9593151986708,208.2618657265831,169.44271782964267,2.5267982735890993,339.90739431532916,299.94807911665833,8.506336823475788,1.3373104916236216,3.073609041832298,0.039622069999999995,16.674455,22.77054,2.0489883,0.6290927993658046,5.574682743656284,164.66729526418695,273.0,7.11,,-1.660699854175719,2.5239244197516824
0,0,0,0.00223716,0.0126423,0.0314677,0.0340101,0.0458603,0.0902382,0.165235,0.193887,0.194516,0.198981,0.223564,0.255875,0.307024,0.344228,0.404815,0.428527,0.478752,0.532633,0.621198,0.766048,0.945604,1.0232,1.08952,1.17077,1.29011,1.4711,1.72141,2.04002,2.34421,2.44464,2.10614,1.31646,0.541894,24.836816759999998,1.03747,10.81,0.0768,1.07359,7.37,15.809,2020,10,5,8,4,48,10/5/2020,8:04:48 AM,10/05/2020 8:04:48,6.5535,125.375,24.8368,57,2450,2701,3220,0,24271,4,0,0.933123,2.76875,8:04:48 AM,51.29054667,2.63013,,DGPS,08:04:48,34594.32,15.82872,1.272,7.192,2.078,,,,,,,,,0001_20201005_080301,2020-10-05 08:04:48,0.5345514834205862,0.5502625004587168,0.78234819,-6.819737499541283,-7.37,22.504603034674716,141.29363056497897,172.76919357561806,3.856755725220567,307.93593119167974,285.43132815700505,13.683242077952551,1.947387773093181,3.2590349779145615,0.04634716,13.983707,8.753344,2.0534186,0.5092006314647401,3.6241351113576457,115.10506457279716,273.0,,,-1.068550590080035,2.8216269568541117
0,0,0,0.00271525,0.0144083,0.0346092,0.0370552,0.0486632,0.0919063,0.161212,0.183191,0.180679,0.183217,0.205034,0.235901,0.285233,0.324084,0.385218,0.412415,0.45923,0.509334,0.580383,0.69126,0.81402,0.84022,0.850571,0.87353,0.943197,1.09433,1.36489,1.8031,2.45293,3.18793,3.46307,2.52691,1.00512,26.245566450000002,1.03967,10.82,0.0768,1.07288,7.09,15.809,2020,10,5,8,4,49,10/5/2020,8:04:49 AM,10/05/2020 8:04:49,6.5535,149.972,26.2456,57,2415,2714,3162,0,24226,4,0,0.935718,2.65763,8:04:49 AM,51.29053167,2.63012333,,DGPS,08:04:49,34594.0,15.82872,3.552,7.376,2.308,,,,,,,,,0001_20201005_080301,2020-10-05 08:04:49,0.5343769633507781,0.5500879636128703,0.7813198,-6.53991203638713,-7.09,25.06094950540013,186.40024785308285,208.38403815379974,3.9543353833177295,345.0274138625443,319.96646435714416,13.76753158487462,1.9834352371090558,3.21806983666312,0.05173275,11.621698,12.63596,1.9361757,0.5028787099737414,3.879353927637843,137.19937196867124,324.0,7.11,,-1.2286427941176243,2.8956353250907787
0,0,0,0.00117211,0.00845633,0.0255801,0.0307649,0.0460008,0.0970845,0.184872,0.207383,0.19107,0.183391,0.199488,0.226432,0.273939,0.304517,0.352781,0.359753,0.392981,0.426225,0.494421,0.627084,0.829278,0.980123,1.16743,1.43176,1.83189,2.46001,3.42433,4.67449,5.9077,6.20004,4.81983,2.37023,0.808515,41.53902174,1.03306,10.81,0.0768,1.07218,7.25,15.81,2020,10,5,8,4,50,10/5/2020,8:04:50 AM,10/05/2020 8:04:50,6.5535,171.255,41.539,57,2431,2682,3224,0,24252,4,0,0.930377,2.88662,8:04:50 AM,51.29051833,2.63011833,,DGPS,08:04:50,34593.52,15.82844,3.872,7.12,2.168,,,,,,,,,0001_20201005_080301,2020-10-05 08:04:50,0.5342024432809701,0.5499134273804146,0.78017819,-6.700086572619585,-7.25,45.664200002072256,190.43266496643918,141.67166848123307,2.243808552416559,312.9650413991037,267.30084139703143,6.853619276914985,1.1659495867034093,3.0797053527560485,0.03520854,19.452556,20.106315,1.9449421999999998,0.6675858155501497,6.378302139483406,158.53011908811723,273.0,7.11,,-1.799752270602313,2.393378830640008
0,0,0,0.00201302,0.0115725,0.0296231,0.0330452,0.0459734,0.0910381,0.166613,0.193025,0.188874,0.189253,0.210275,0.241254,0.291654,0.330481,0.387027,0.402383,0.425355,0.447352,0.4691,0.509213,0.571094,0.599801,0.658442,0.744625,0.84755,0.994016,1.25948,1.84203,3.03791,5.02912,6.53924,4.92849,1.7338,33.45072232,1.03453,10.81,0.0768,1.07218,7.7,15.81,2020,10,5,8,4,51,10/5/2020,8:04:51 AM,10/05/2020 8:04:51,6.5535,182.3,33.4507,57,2459,2691,3275,0,24322,4,0,0.9317,2.82976,8:04:51 AM,51.29050333,2.63011167,,DGPS,08:04:51,34593.84,15.82968,3.984,7.052,1.472,,,,,,,,,0001_20201005_080301,2020-10-05 08:04:51,0.5340279232111621,0.549738891751818,0.7789457299999999,-7.150261108248182,-7.7,32.84090060530212,242.1069511763007,185.39326119828766,2.4891765579797087,364.52454955159754,331.6836489462954,11.099712335317186,1.3156685647054036,3.1472716660746682,0.04320862,10.157468,21.26856,1.9814857,0.6338290627013562,5.283381961701026,176.54829010077873,324.0,7.11,,-1.696234509414719,2.731631250141998
0,0,0,0.00263479,0.013642,0.0328433,0.0359138,0.0481511,0.0915968,0.162557,0.188693,0.18929,0.195041,0.222121,0.25897,0.317212,0.361193,0.426478,0.450544,0.495094,0.540858,0.622456,0.765891,0.964847,1.07909,1.18006,1.30179,1.50168,1.84411,2.37758,3.16068,4.19779,5.17174,5.19563,3.52613,1.36949,38.29179679,1.02718,10.8,0.0768,1.07288,7.57,15.81,2020,10,5,8,4,52,10/5/2020,8:04:52 AM,10/05/2020 8:04:52,6.5535,164.174,38.2918,57,2456,2699,3216,0,24301,4,0,0.924477,3.1411,8:04:52 AM,51.290485,2.6301,,DGPS,08:04:52,34593.44,15.82944,1.576,7.408,1.634,,,,,,,,,0001_20201005_080301,2020-10-05 08:04:52,0.5338534031413541,0.5495643567176107,0.7776426399999999,-7.02043564328239,-7.57,34.98348570610514,197.42966653284861,181.52230534883694,2.8872768646193143,341.61992201326757,306.6364363071624,9.765176771783201,1.5297094560538702,3.1024996329147085,0.04912009,16.711158,19.46078,2.0707387,0.588512625821494,4.9534282723512195,154.79121507434948,324.0,,,-1.4927498502759764,2.604034589087873
0,0,0,0.00236375,0.0129776,0.032436,0.0359503,0.0490059,0.0948315,0.170282,0.196736,0.194299,0.197799,0.223614,0.261423,0.325387,0.377697,0.455338,0.489146,0.544093,0.601789,0.706686,0.895739,1.18324,1.39163,1.58029,1.7381,1.88381,2.05414,2.2956,2.64933,3.15081,3.65136,3.64008,2.54348,1.07718,34.70664305,1.02865,10.82,0.0768,1.07359,7.51,15.81,2020,10,5,8,4,53,10/5/2020,8:04:53 AM,10/05/2020 8:04:53,6.5535,141.457,34.7066,57,2453,2693,3219,0,24292,4,0,0.925192,3.11014,8:04:53 AM,51.29047167,2.63009167,,DGPS,08:04:53,34594.4,15.829,3.568,7.584,2.05,,,,,,,,,0001_20201005_080301,2020-10-05 08:04:53,0.533678883071546,0.549389822268386,0.7762891500000001,-6.960610177731613,-7.51,29.769299103045277,157.60018096330714,181.45216282486433,3.4522744534459915,327.3628733796044,297.59357427655914,10.99666042678568,1.7875471623401844,3.1442664006932417,0.047777349999999996,18.468931,14.06291,2.1270246999999998,0.5382045224287355,4.165835330157082,132.36321782241106,273.0,7.11,,-1.1979922136492178,2.6630387905091975
0,0,0,0.00193495,0.0116827,0.0309937,0.0348459,0.0480333,0.095051,0.173513,0.200583,0.195369,0.195925,0.217313,0.247802,0.303726,0.352059,0.434688,0.48439,0.563816,0.653087,0.791237,1.0143,1.28489,1.38787,1.43266,1.46615,1.55269,1.75528,2.15319,2.79856,3.637,4.15073,3.59752,2.05573,0.814085,34.13670455,1.02645,10.8,0.0768,1.07077,7.51,15.809,2020,10,5,8,4,54,10/5/2020,8:04:54 AM,10/05/2020 8:04:54,6.5535,139.747,34.1367,57,2449,2699,3233,0,24293,4,0,0.925636,3.09096,8:04:54 AM,51.29046,2.63008833,,DGPS,08:04:54,34593.52,15.8288,3.28,7.46,2.576,,,,,,,,,0001_20201005_080301,2020-10-05 08:04:54,0.533504363001738,0.5492152883948008,0.7749034399999999,-6.960784711605199,-7.51,29.962489745548528,164.8146785839684,180.07401635318644,3.5508574483210715,315.71865851547017,285.75616876992166,10.537130298471805,1.828167443510571,3.1578235204510805,0.04461135,17.772808,14.255065,2.0642202,0.5306808073787599,4.131608169785212,131.3473085523407,273.0,7.11,,-1.2115554024502595,2.6599170611833904
0,0,0,0.00185768,0.0115922,0.0315262,0.0359469,0.0504307,0.10071,0.183869,0.207344,0.197582,0.195467,0.216078,0.246903,0.304275,0.353832,0.436829,0.482138,0.558651,0.643933,0.787503,1.03622,1.37433,1.56365,1.70932,1.85931,2.05961,2.30609,2.55109,2.74207,2.89322,2.86523,2.51564,1.72705,0.846597,33.09589468,1.03012,10.82,0.0768,1.07077,7.53,15.809,2020,10,5,8,4,55,10/5/2020,8:04:55 AM,10/05/2020 8:04:55,6.5535,119.718,33.0959,57,2460,2700,3229,0,24296,4,0,0.928949,2.94805,8:04:55 AM,51.290445,2.63008333,,DGPS,08:04:55,34594.12,15.82828,6.848,7.4,2.378,,,,,,,,,0001_20201005_080301,2020-10-05 08:04:55,0.53332984293193,0.5490407550875774,0.77351594,-6.980959244912423,-7.53,28.818955171614473,136.04096282696005,159.12550856889453,3.384968582722809,308.16597556820096,279.3470203965865,10.693169607749423,1.7591424436199636,3.177316755757284,0.04497608,20.110744,10.847737,2.0924376000000002,0.5435289475382642,4.086747508550986,119.68948089106917,230.0,7.11,,-1.1095759923630766,2.6209744146285074
0,0,0,0.0028704,0.0150499,0.0358758,0.0380751,0.0492422,0.0926894,0.162649,0.186371,0.186089,0.191895,0.219267,0.257789,0.320423,0.371204,0.446324,0.480009,0.532193,0.586936,0.679639,0.841177,1.09831,1.31803,1.58434,1.88077,2.14447,2.28366,2.25981,2.11708,1.94704,1.73914,1.4076,0.884524,0.406432,26.766973799999995,1.03012,10.81,0.0768,1.07288,7.54,15.808,2020,10,5,8,4,56,10/5/2020,8:04:56 AM,10/05/2020 8:04:56,6.5535,105.268,26.767,57,2456,2683,3211,0,24297,4,0,0.927122,3.02682,8:04:56 AM,51.29042833,2.630075,,DGPS,08:04:56,34593.8,15.8268,3.864,7.448,1.802,,,,,,,,,0001_20201005_080301,2020-10-05 08:04:56,0.533155322862122,0.5488662223375033,0.7721531500000001,-6.991133777662497,-7.54,23.487661947406206,115.96157063832815,130.06554683253412,3.158145145177731,273.7270586732414,250.2393967258352,11.654078608853176,1.6590774775363815,3.2823805682707072,0.0537961,18.252748,6.384736,2.0756937,0.5627091240296608,3.926729521915385,103.5915266995067,140.0,7.11,,-1.046757256675851,2.6290201402133633
0,0,0,0.00263245,0.0144359,0.0353077,0.0377959,0.0495032,0.0940265,0.165468,0.187094,0.182086,0.181922,0.200972,0.22953,0.278191,0.316532,0.378123,0.406959,0.462742,0.523904,0.635676,0.832966,1.09315,1.21768,1.26907,1.28461,1.31365,1.38477,1.5298,1.77899,2.17189,2.53567,2.45515,1.62141,0.723247,25.59495365,1.03085,10.81,0.0768,1.07218,7.74,15.808,2020,10,5,8,4,57,10/5/2020,8:04:57 AM,10/05/2020 8:04:57,6.5535,131.559,25.595,57,2462,2672,3253,0,24328,4,0,0.928392,2.97206,8:04:57 AM,51.29041333,2.63006833,,DGPS,08:04:57,34595.56,15.82788,2.672,7.412,1.874,,,,,,,,,0001_20201005_080301,2020-10-05 08:04:57,0.532980802792314,0.5486916901354322,0.77082844,-7.191308309864568,-7.74,24.6424329947211,140.28116138875944,183.08380940634774,3.955351618774935,319.1803653091799,294.53793231445877,12.952469643624664,1.983805951617017,3.2389022852685594,0.05237604999999999,14.11209,9.507367,1.9231206,0.5028141043388465,3.706927267055219,118.52830542768437,273.0,7.11,,-1.0542518740631517,2.809071019387034
0,0,0,0.00210144,0.0124586,0.032116,0.0350104,0.0470298,0.0929036,0.170132,0.197112,0.196077,0.200014,0.225459,0.25928,0.313001,0.349767,0.408951,0.427861,0.472625,0.519273,0.611667,0.782303,1.04977,1.2589,1.46573,1.64309,1.77574,1.89169,2.03305,2.26926,2.64405,3.08353,3.14454,2.25247,0.954172,30.821133839999998,1.02645,10.79,0.0768,1.07288,7.88,15.808,2020,10,5,8,4,58,10/5/2020,8:04:58 AM,10/05/2020 8:04:58,6.5535,135.05,30.8211,57,2470,2707,3262,0,24350,4,0,0.923815,3.16973,8:04:58 AM,51.2904,2.630065,,DGPS,08:04:58,34595.0,15.828,2.864,7.508,2.112,,,,,,,,,0001_20201005_080301,2020-10-05 08:04:58,0.5328062827225059,0.5485171584722857,0.76955371,-7.3314828415277145,-7.88,27.795983105831226,151.42262986386518,180.66777792115707,3.490629263843594,327.15159037845075,299.3556072726195,11.769743460155533,1.8034871378655324,3.1749491543170145,0.04667604,16.60991,12.078762000000001,2.0857858,0.535239476616646,4.086583759084257,128.74379502431603,324.0,7.11,,-1.179633652512862,2.7117813073084243
