Volume conc (microl/l) 1,Volume conc (microl/l) 2,Volume conc (microl/l) 3,Volume conc (microl/l) 4,Volume conc (microl/l) 5,Volume conc (microl/l) 6,Volume conc (microl/l) 7,Volume conc (microl/l) 8,Volume conc (microl/l) 9,Volume conc (microl/l) 10,Volume conc (microl/l) 11,Volume conc (microl/l) 12,Volume conc (microl/l) 13,Volume conc (microl/l) 14,Volume conc (microl/l) 15,Volume conc (microl/l) 16,Volume conc (microl/l) 17,Volume conc (microl/l) 18,Volume conc (microl/l) 19,Volume conc (microl/l) 20,Volume conc (microl/l) 21,Volume conc (microl/l) 22,Volume conc (microl/l) 23,Volume conc (microl/l) 24,Volume conc (microl/l) 25,Volume conc (microl/l) 26,Volume conc (microl/l) 27,Volume conc (microl/l) 28,Volume conc (microl/l) 29,Volume conc (microl/l) 30,Volume conc (microl/l) 31,Volume conc (microl/l) 32,Volume conc (microl/l) 33,Volume conc (microl/l) 34,Volume conc (microl/l) 35,Volume conc (microl/l) 36,TVC_recal,Laser transmission Sensor [mW],Supply voltage in calibrated units [V],External Auxiliary input 1 in calibrated units [mW],Laser Reference sensor in calibrated units [mW],Depth in calibrated units [m],Temperature in calibrated units [C],year,Month,day,hour,minute,second,DATE,TIME,DATE  & Time (format gps),External Auxiliary input 2 in calibrated units [mW],Sauter Mean Diameter [?],Total Volume Concentration [ppm],Relative Humidity [%],Accelerometer X [counts],Accelerometer Y [counts],Accelerometer Z [counts],Raw pressure (most sign bit),Raw pressure (least sign 16 bits),Ambient light (counts),Not used,Computed optical transmission over path,Beam-attenuation (c) [m-1].,Current Time,Latitude_ship,Longitude_ship,Speed over Ground,GPSfix,Row Labels,Average of Salinity,Average of Temperature_C,Average of Turbidity_NTU,Average of Depth_m,Average of Chlorohyll_ug_L,Time,VPR lat,VPR long,VPR depth,majoraxis,minoraxis,angle,devz,linename
0,0,0,0.00169278,0.0104502,0.0289349,0.0345442,0.0519279,0.108506,0.210081,0.25658,0.25982,0.267913,0.305633,0.355,0.431119,0.486632,0.569684,0.591331,0.638643,0.687539,0.757569,0.875969,1.00368,1.00429,0.977736,0.95133,0.956756,1.02567,1.18683,1.47352,1.91504,2.38935,2.50277,1.78316,0.743562,15.50938098,1.02351,10.81,0.0768,1.07077,2.43,15.804,2020,10,5,8,3,1,10/5/2020,8:03:01 AM,10/05/2020 8:03:01,6.5535,106.852,24.8433,57,2388,2986,2992,0,23498,6,0,0.922986,3.20566,8:03:01 AM,51.29263667,2.63184,,DGPS,08:03:01,34592.12,15.82448,6.12,2.188,2.156,,,,,,,,,0001_20201005_080301
0,0,0,0.00205348,0.0120367,0.0318567,0.0369166,0.0538837,0.110846,0.212779,0.261581,0.270386,0.282994,0.327322,0.384484,0.463819,0.51451,0.582004,0.579933,0.60263,0.624399,0.659305,0.72567,0.783789,0.743616,0.695521,0.664682,0.671692,0.738643,0.893123,1.17929,1.63489,2.1383,2.26975,1.63597,0.716194,13.10976518,1.02645,10.82,0.0768,1.07218,2.46,15.802,2020,10,5,8,3,2,10/5/2020,8:03:02 AM,10/05/2020 8:03:02,6.5535,109.184,21.5049,57,2346,3023,2973,0,23503,6,0,0.924421,3.14349,8:03:02 AM,51.29260667,2.63183,,DGPS,08:03:02,34592,15.82232,1.824,2.528,1.98,,,,,,,,,0001_20201005_080301
0,0,0,0.00202958,0.0118554,0.0311172,0.0357828,0.0520481,0.106961,0.204929,0.250731,0.259081,0.272034,0.315524,0.371549,0.449227,0.500314,0.571716,0.57865,0.611852,0.645368,0.685693,0.751819,0.792585,0.721261,0.634838,0.563363,0.529579,0.550894,0.648568,0.867773,1.29185,1.93827,2.46923,2.11178,1.02858,12.01714208,1.03085,10.82,0.0768,1.07007,2.66,15.8,2020,10,5,8,3,3,10/5/2020,8:03:03 AM,10/05/2020 8:03:03,6.5535,102.545,20.8569,57,2371,3021,2948,0,23535,5,0,0.930223,2.89324,8:03:03 AM,51.29257667,2.63182667,,DGPS,08:03:03,34592,15.81864,2.016,2.784,1.99,,,,,,,,,0001_20201005_080301
0,0,0,0.00192486,0.0113382,0.0299847,0.034598,0.0504487,0.104154,0.200532,0.246581,0.254947,0.267926,0.311166,0.368157,0.453739,0.517362,0.608588,0.634263,0.689895,0.748443,0.839966,0.99101,1.13158,1.086,0.970809,0.836973,0.733214,0.691228,0.730339,0.876183,1.16208,1.56155,1.84088,1.54582,0.756416,14.42134946,1.03012,10.82,0.0768,1.07148,2.86,15.801,2020,10,5,8,3,4,10/5/2020,8:03:04 AM,10/05/2020 8:03:04,6.5535,89.4972,21.2881,57,2383,3006,2984,0,23565,5,0,0.928339,2.97432,8:03:04 AM,51.29254667,2.63181833,,DGPS,08:03:04,34592.2,15.81692,3.8,2.96,1.69,,,,,,,,,0001_20201005_080301
0,0,0,0.00169704,0.0103451,0.0281841,0.0332501,0.0498507,0.104812,0.205125,0.254793,0.263813,0.278225,0.324174,0.383357,0.468736,0.527573,0.608847,0.61841,0.653685,0.68888,0.742142,0.835188,0.927967,0.904139,0.867471,0.843377,0.851981,0.912492,1.04283,1.26686,1.58017,1.86635,1.85429,1.31769,0.571723,14.69820404,1.02645,10.82,0.0768,1.07288,3.13,15.805,2020,10,5,8,3,5,10/5/2020,8:03:05 AM,10/05/2020 8:03:05,6.5535,96.5539,21.8884,57,2376,2968,2990,0,23608,5,0,0.923815,3.16973,8:03:05 AM,51.29251833,2.63180333,,DGPS,08:03:05,34592.56,15.81952,3.216,3.064,1.63,,,,,,,,,0001_20201005_080301
0,0,0,0.00189195,0.0112705,0.0301582,0.0351058,0.0514161,0.10587,0.202785,0.247143,0.254121,0.266837,0.311729,0.370951,0.456144,0.513906,0.593889,0.605886,0.650962,0.697171,0.777224,0.914658,1.0624,1.06733,1.0352,0.998832,0.991995,1.03926,1.15437,1.34761,1.61302,1.84388,1.78403,1.22726,0.54518,15.79611555,1.02571,10.82,0.0768,1.07007,3.23,15.805,2020,10,5,8,3,6,10/5/2020,8:03:06 AM,10/05/2020 8:03:06,6.5535,96.3742,22.8095,57,2347,2995,2991,0,23624,5,0,0.925582,3.09331,8:03:06 AM,51.29249167,2.63178333,,DGPS,08:03:06,34591.84,15.82836,3.176,3.244,2.478,,,,,,,,,0001_20201005_080301
0,0,0,0.00138551,0.0090671,0.026455,0.032667,0.0509628,0.110061,0.220153,0.274258,0.281647,0.294797,0.342979,0.404909,0.498212,0.563745,0.658016,0.674892,0.72278,0.771256,0.845925,0.976421,1.10839,1.08163,1.01436,0.94972,0.933655,1.0142,1.25342,1.75595,2.65688,3.83797,4.3575,3.03039,1.13591,16.87191341,1.01763,10.81,0.0768,1.07007,3.46,15.807,2020,10,5,8,3,7,10/5/2020,8:03:07 AM,10/05/2020 8:03:07,6.5535,125.226,31.8906,57,2369,2953,3022,0,23659,5,0,0.918288,3.40975,8:03:07 AM,51.292465,2.631765,,DGPS,08:03:07,34591.64,15.8258,3.32,3.368,2.542,,,,,,,,,0001_20201005_080301
0,0,0,0.00138613,0.00911806,0.0260825,0.0312951,0.0480951,0.104381,0.210062,0.262228,0.269546,0.28028,0.322725,0.376873,0.457098,0.511906,0.592959,0.605665,0.649039,0.693398,0.754673,0.856488,0.934456,0.862914,0.758121,0.660771,0.606973,0.630241,0.777078,1.14644,1.92481,3.23691,4.45346,3.81144,1.68158,13.44029189,1.02792,10.82,0.0768,1.07148,3.53,15.808,2020,10,5,8,3,8,10/5/2020,8:03:08 AM,10/05/2020 8:03:08,6.5535,138.5,28.5485,57,2344,2935,2989,0,23670,5,0,0.926353,3.06001,8:03:08 AM,51.29243833,2.63174667,,DGPS,08:03:08,34592,15.82796,1.832,3.564,1.506,,,,,,,,,0001_20201005_080301
0,0,0,0.00183761,0.0111035,0.0296638,0.0340161,0.0491083,0.10124,0.194208,0.236589,0.244113,0.257697,0.302582,0.361091,0.446632,0.505907,0.590625,0.609108,0.662789,0.718493,0.824526,1.01355,1.24645,1.31546,1.30739,1.25004,1.1995,1.21078,1.32848,1.58531,1.9813,2.32293,2.18535,1.40226,0.581122,17.63828931,1.02571,10.79,0.0768,1.07218,3.85,15.808,2020,10,5,8,3,9,10/5/2020,8:03:09 AM,10/05/2020 8:03:09,6.5535,109.615,26.1112,57,2344,2908,3010,0,23720,5,0,0.92376,3.17213,8:03:09 AM,51.29241333,2.63173167,,DGPS,08:03:09,34591.53333,15.82993333,2.2,3.7,0.54,,,,,,,,,0001_20201005_080301
0,0,0,0.00195639,0.0114018,0.0301984,0.0351539,0.0516131,0.106717,0.205973,0.253549,0.263714,0.278181,0.324576,0.385956,0.480859,0.554706,0.661005,0.698697,0.768706,0.843159,0.955576,1.1382,1.33427,1.34165,1.28215,1.19582,1.12366,1.09438,1.12276,1.21814,1.3781,1.51876,1.45546,1.02924,0.464876,17.76272759,1.02351,10.82,0.0768,1.07288,4.15,15.81,2020,10,5,8,3,10,10/5/2020,8:03:10 AM,10/05/2020 8:03:10,6.5535,89.7055,23.6092,57,2339,2891,3049,0,23768,4,0,0.92117,3.28442,8:03:10 AM,51.29238833,2.631715,,DGPS,08:03:10,,,,,,,,,,,,,,0001_20201005_080301
0,0,0,0.00141883,0.00936371,0.0267476,0.0318556,0.0484216,0.10488,0.210945,0.263372,0.273583,0.289082,0.339546,0.4054,0.507168,0.58612,0.700611,0.734913,0.798627,0.864914,0.96001,1.11717,1.2874,1.28729,1.25324,1.21752,1.21389,1.26285,1.37185,1.55144,1.80245,2.03773,2.01721,1.48486,0.682603,18.71962834,1.01983,10.82,0.0768,1.07218,4.4,15.811,2020,10,5,8,3,11,10/5/2020,8:03:11 AM,10/05/2020 8:03:11,6.5535,97.8637,26.7445,57,2334,2898,3073,0,23806,4,0,0.918466,3.40202,8:03:11 AM,51.29236167,2.6317,,DGPS,08:03:11,34592,15.83024,3.672,4.116,2.07,,,,,,,,,0001_20201005_080301
0,0,0,0.00135466,0.0091375,0.0268877,0.0328591,0.050795,0.110278,0.221677,0.275398,0.284109,0.30047,0.356271,0.431383,0.545812,0.631971,0.751909,0.780316,0.84125,0.903816,1.00439,1.18023,1.38221,1.40086,1.36762,1.31266,1.27635,1.28743,1.36271,1.50649,1.70312,1.83347,1.6715,1.09352,0.453492,19.63664396,1.01836,10.81,0.0768,1.07218,4.63,15.812,2020,10,5,8,3,12,10/5/2020,8:03:12 AM,10/05/2020 8:03:12,6.5535,94.1323,26.3918,57,2354,2889,3066,0,23842,4,0,0.917143,3.4597,8:03:12 AM,51.29233667,2.631685,,DGPS,08:03:12,34591.72,15.83244,4.368,4.4,2.128,,,,,,,,,0001_20201005_080301
0,0,0,0.0014405,0.00942262,0.0271426,0.0328532,0.0504149,0.108875,0.217812,0.269966,0.277896,0.292568,0.345115,0.417166,0.530363,0.620223,0.745056,0.781951,0.846513,0.913303,1.00916,1.17091,1.3488,1.34719,1.30589,1.25916,1.23752,1.26057,1.34283,1.4976,1.71614,1.88273,1.7632,1.19078,0.514811,19.26771082,1.02057,10.81,0.0768,1.07218,4.76,15.813,2020,10,5,8,3,13,10/5/2020,8:03:13 AM,10/05/2020 8:03:13,6.5535,87.1696,26.3354,57,2360,2840,3054,0,23863,4,0,0.919128,3.37321,8:03:13 AM,51.292315,2.63166667,,DGPS,08:03:13,34591.64,15.83296,3.192,4.632,1.034,,,,,,,,,0001_20201005_080301
0,0,0,0.00148819,0.00949174,0.0267685,0.0320655,0.0486482,0.103475,0.203837,0.250124,0.254482,0.263941,0.304706,0.359442,0.449757,0.523722,0.639429,0.695072,0.791516,0.898214,1.06264,1.33341,1.63481,1.67407,1.59184,1.45523,1.34361,1.31286,1.39353,1.58324,1.85133,2.05587,1.94787,1.32927,0.580876,20.24141913,1.02645,10.82,0.0768,1.07218,4.97,15.814,2020,10,5,8,3,14,10/5/2020,8:03:14 AM,10/05/2020 8:03:14,6.5535,97.0839,28.0066,57,2348,2820,3093,0,23895,4,0,0.924421,3.14349,8:03:14 AM,51.292295,2.63164167,,DGPS,08:03:14,34591.8,15.83228,3.544,4.728,1.36,,,,,,,,,0001_20201005_080301
0,0,0,0.00161349,0.0102847,0.0289179,0.0343427,0.051269,0.10806,0.210624,0.254992,0.256957,0.265223,0.306093,0.364152,0.462676,0.545431,0.667682,0.720138,0.808431,0.903747,1.06595,1.34875,1.71559,1.85979,1.88864,1.82863,1.74096,1.68501,1.71306,1.85207,2.09964,2.29512,2.1313,1.41269,0.622084,22.69908379,1.01689,10.82,0.0768,1.07148,5.24,15.814,2020,10,5,8,3,15,10/5/2020,8:03:15 AM,10/05/2020 8:03:15,6.5535,103.647,31.2599,57,2342,2818,3138,0,23937,4,0,0.91642,3.4912,8:03:15 AM,51.29227667,2.63161667,,DGPS,08:03:15,34592,15.83328,1.504,4.924,1.956,,,,,,,,,0001_20201005_080301
0,0,0,0.0016743,0.010681,0.029987,0.0353807,0.0521607,0.109488,0.213103,0.25847,0.263993,0.276598,0.325605,0.393197,0.499393,0.583103,0.705685,0.754504,0.840376,0.932738,1.07441,1.31076,1.59094,1.65783,1.63491,1.5504,1.45881,1.40446,1.41486,1.48543,1.61052,1.67534,1.4905,0.962902,0.417802,20.8689467,1.01836,10.81,0.0768,1.07359,5.43,15.813,2020,10,5,8,3,16,10/5/2020,8:03:16 AM,10/05/2020 8:03:16,6.5535,92.2414,27.026,57,2380,2815,3131,0,23968,4,0,0.915941,3.51215,8:03:16 AM,51.292255,2.631595,,DGPS,08:03:16,34591.44,15.833,4.776,5.164,2.4,,,,,,,,,0001_20201005_080301
0,0,0,0.00160893,0.0103062,0.0285446,0.0330405,0.0480288,0.0997936,0.191327,0.22778,0.22756,0.233401,0.267318,0.31349,0.385805,0.437479,0.516065,0.538546,0.590572,0.64444,0.745761,0.934109,1.20771,1.37311,1.50262,1.59193,1.6632,1.76205,1.95315,2.29094,2.82525,3.38861,3.3747,2.18293,0.846756,19.81968563,1.02057,10.82,0.0768,1.07288,5.55,15.813,2020,10,5,8,3,17,10/5/2020,8:03:17 AM,10/05/2020 8:03:17,6.5535,123.834,32.4379,57,2380,2783,3142,0,23986,4,0,0.918525,3.39945,8:03:17 AM,51.29223333,2.63157667,,DGPS,08:03:17,34591.92,15.83208,3.296,5.444,1.804,,,,,,,,,0001_20201005_080301
0,0,0,0.0018957,0.0116296,0.0307123,0.0341219,0.0474589,0.0961631,0.180445,0.213502,0.214705,0.222019,0.255114,0.30034,0.370289,0.422099,0.500483,0.526323,0.58078,0.638289,0.738748,0.91359,1.12662,1.18775,1.18381,1.15377,1.15636,1.24328,1.46464,1.85839,2.41313,2.85919,2.64086,1.60865,0.634792,16.6733275,1.03306,10.79,0.0768,1.07218,5.7,15.814,2020,10,5,8,3,18,10/5/2020,8:03:18 AM,10/05/2020 8:03:18,6.5535,121.84,26.83,57,2379,2776,3179,0,24010,4,0,0.930377,2.88662,8:03:18 AM,51.29221333,2.63156,,DGPS,08:03:18,34592.24,15.8328,2.96,5.568,1.466,,,,,,,,,0001_20201005_080301
0,0,0,0.00183277,0.0110832,0.0297483,0.0342167,0.0492322,0.101093,0.192846,0.232762,0.236996,0.246745,0.284664,0.334739,0.41498,0.478458,0.575929,0.617069,0.690089,0.769006,0.896444,1.1115,1.37194,1.44788,1.44223,1.38515,1.32302,1.29604,1.33573,1.45494,1.63456,1.74034,1.57756,1.05767,0.489324,18.36636317,1.02792,10.81,0.0768,1.07148,5.69,15.812,2020,10,5,8,3,19,10/5/2020,8:03:19 AM,10/05/2020 8:03:19,6.5535,93.9565,24.8658,57,2373,2811,3095,0,24008,4,0,0.926353,3.06001,8:03:19 AM,51.29219333,2.63154167,,DGPS,08:03:19,34592.33333,15.833,2.8,5.677777778,1.25,,,,,,,,,0001_20201005_080301
0,0,0,0.00172383,0.0108968,0.0298101,0.0341728,0.0491807,0.101583,0.193317,0.227816,0.22437,0.226452,0.254931,0.297013,0.371881,0.437503,0.54081,0.594374,0.676638,0.767196,0.910051,1.1563,1.47566,1.60414,1.62495,1.55426,1.4579,1.41327,1.48471,1.70245,2.06671,2.34909,2.1427,1.29858,0.512229,19.42335923,1.02571,10.82,0.0768,1.07077,5.77,15.811,2020,10,5,8,3,20,10/5/2020,8:03:20 AM,10/05/2020 8:03:20,6.5535,111.783,27.7927,57,2375,2778,3128,0,24020,4,0,0.924974,3.1196,8:03:20 AM,51.29217333,2.63152167,,DGPS,08:03:20,34591.77778,15.82955556,3.266666667,5.788888889,2.183333333,,,,,,,,,0001_20201005_080301
0,0,0,0.00193026,0.0116895,0.0309372,0.0346493,0.0482168,0.0974581,0.182562,0.215381,0.215734,0.22188,0.253672,0.297382,0.371201,0.432237,0.526925,0.570953,0.64501,0.725037,0.858539,1.08617,1.39825,1.5787,1.73017,1.86188,1.99248,2.12741,2.27508,2.42775,2.61989,2.72782,2.57374,1.91965,0.994485,22.21928416,1.02645,10.82,0.0768,1.07077,6.36,15.811,2020,10,5,8,3,21,10/5/2020,8:03:21 AM,10/05/2020 8:03:21,6.5535,125.274,33.0549,57,2402,2751,3232,0,24113,4,0,0.925636,3.09096,8:03:21 AM,51.29215667,2.63149833,,DGPS,08:03:21,34592.16,15.83008,3.72,5.78,2.41,,,,,,,,,0001_20201005_080301
0,0,0,0.00156919,0.0103027,0.0297621,0.0359732,0.0544516,0.115228,0.224217,0.26779,0.266094,0.272485,0.314321,0.374852,0.47386,0.554432,0.671194,0.713443,0.78734,0.866108,0.981219,1.17231,1.37697,1.38048,1.32279,1.25089,1.21517,1.24678,1.35456,1.5183,1.6911,1.74483,1.51307,0.963585,0.402292,18.85289179,1.02351,10.82,0.0768,1.07077,6.25,15.811,2020,10,5,8,3,22,10/5/2020,8:03:22 AM,10/05/2020 8:03:22,6.5535,94.897,25.1678,57,2392,2821,3147,0,24096,4,0,0.922986,3.20566,8:03:22 AM,51.29213833,2.63147667,,DGPS,08:03:22,34592.24,15.83048,4.392,6.088,2.106,,,,,,,,,0001_20201005_080301
0,0,0,0.00107228,0.00783813,0.0247858,0.0317106,0.0515685,0.117255,0.246578,0.313751,0.326382,0.344439,0.407311,0.489041,0.620323,0.724036,0.87932,0.935733,1.03997,1.15243,1.32051,1.5969,1.87975,1.84438,1.68393,1.46833,1.27362,1.15124,1.12378,1.19522,1.34385,1.46081,1.36911,0.939758,0.41256,22.25120431,1.01395,10.82,0.0768,1.07288,5.88,15.811,2020,10,5,8,3,23,10/5/2020,8:03:23 AM,10/05/2020 8:03:23,6.5535,73.2223,27.7773,57,2377,2819,3054,0,24037,4,0,0.912573,3.65947,8:03:23 AM,51.29212167,2.63145333,,DGPS,08:03:23,34592.28,15.83064,3.368,6.384,1.294,,,,,,,,,0001_20201005_080301
0,0,0,0.00179694,0.0112211,0.0303348,0.0343694,0.0484514,0.0983878,0.184113,0.21514,0.21106,0.213161,0.240174,0.28045,0.352204,0.415752,0.515302,0.567458,0.648623,0.738158,0.878578,1.11129,1.38427,1.45628,1.4474,1.42055,1.45768,1.62154,1.9492,2.41705,2.93424,3.11911,2.53944,1.32934,0.475538,19.94999444,1.02645,10.81,0.0768,1.07218,6.19,15.811,2020,10,5,8,3,24,10/5/2020,8:03:24 AM,10/05/2020 8:03:24,6.5535,119.896,30.3477,57,2373,2784,3126,0,24086,4,0,0.924421,3.14349,8:03:24 AM,51.292105,2.63143333,,DGPS,08:03:24,34593,15.82892,2.776,6.112,1.9,,,,,,,,,0001_20201005_080301
0,0,0,0.00183304,0.011032,0.0294383,0.0336575,0.0478842,0.0968917,0.180988,0.21119,0.207043,0.207599,0.231444,0.267455,0.331721,0.387014,0.471523,0.51083,0.571145,0.635553,0.729105,0.881346,1.06599,1.12917,1.18037,1.25277,1.38093,1.61974,2.02776,2.65179,3.44613,4.04331,3.68665,2.19739,0.854289,18.35321274,1.03012,10.82,0.0768,1.07288,6.9,15.81,2020,10,5,8,3,25,10/5/2020,8:03:25 AM,10/05/2020 8:03:25,6.5535,141.779,32.581,57,2443,2737,3303,0,24197,4,0,0.927122,3.02682,8:03:25 AM,51.29209,2.63141333,,DGPS,08:03:25,34592.32,15.8296,2.616,5.996,2.368,,,,,,,,,0001_20201005_080301
0,0,0,0.00120951,0.00837185,0.0252217,0.0313021,0.049295,0.108645,0.221009,0.275199,0.280486,0.292471,0.341198,0.405588,0.510151,0.591622,0.714401,0.758438,0.843925,0.935136,1.08036,1.32489,1.61747,1.69562,1.71122,1.71154,1.75915,1.90544,2.16847,2.5009,2.79884,2.82138,2.30813,1.32266,0.500902,23.86872916,1.01616,10.82,0.0768,1.07218,6.64,15.81,2020,10,5,8,3,26,10/5/2020,8:03:26 AM,10/05/2020 8:03:26,6.5535,110.622,33.6206,57,2430,2807,3189,0,24156,4,0,0.915157,3.54637,8:03:26 AM,51.29207,2.63139167,,DGPS,08:03:26,34592.2,15.82744,3.52,6.472,2.19,,,,,,,,,0001_20201005_080301
0,0,0,0.00154138,0.0100424,0.0285004,0.0337473,0.050174,0.10581,0.206025,0.248854,0.25094,0.260194,0.302544,0.360992,0.452749,0.523345,0.628951,0.668286,0.747727,0.83399,0.967365,1.18466,1.39686,1.36473,1.23368,1.07769,0.970374,0.954564,1.06511,1.34237,1.85892,2.52503,2.76324,1.84315,0.695833,17.27181548,1.02571,10.82,0.0768,1.07148,6.29,15.81,2020,10,5,8,3,27,10/5/2020,8:03:27 AM,10/05/2020 8:03:27,6.5535,111.872,26.958,57,2385,2814,3084,0,24102,4,0,0.924366,3.14588,8:03:27 AM,51.29205167,2.63137,,DGPS,08:03:27,34592.92,15.82932,3.744,6.84,2.3,,,,,,,,,0001_20201005_080301
0,0,0,0.00140358,0.00983519,0.0288601,0.0338117,0.0493312,0.103932,0.199487,0.228549,0.218038,0.214707,0.23935,0.279907,0.355466,0.423731,0.528941,0.579903,0.65489,0.736229,0.855936,1.0595,1.32151,1.43041,1.51096,1.59494,1.71989,1.91881,2.19519,2.46463,2.62802,2.47889,1.87463,0.998475,0.411926,20.95814777,1.02571,10.82,0.0768,1.07288,6.56,15.81,2020,10,5,8,3,28,10/5/2020,8:03:28 AM,10/05/2020 8:03:28,6.5535,107.739,29.3501,57,2427,2752,3234,0,24144,4,0,0.923154,3.19837,8:03:28 AM,51.29203667,2.63135333,,DGPS,08:03:28,34592.52,15.82868,2.76,6.464,2.408,,,,,,,,,0001_20201005_080301
0,0,0,0.00225525,0.0128877,0.0323843,0.0352055,0.0475841,0.0932404,0.169344,0.196412,0.195093,0.199705,0.226772,0.26415,0.324464,0.370609,0.443616,0.475516,0.541469,0.613641,0.75201,0.999892,1.34287,1.5368,1.64375,1.67389,1.66399,1.65749,1.71563,1.89785,2.23849,2.55976,2.43332,1.59969,0.691381,19.12852025,1.02424,10.82,0.0768,1.07218,6.75,15.808,2020,10,5,8,3,29,10/5/2020,8:03:29 AM,10/05/2020 8:03:29,6.5535,120.985,28.6512,57,2455,2754,3250,0,24173,4,0,0.922436,3.22948,8:03:29 AM,51.29202,2.631335,,DGPS,08:03:29,34591.92,15.82788,0.208,6.352,1.806,,,,,,,,,0001_20201005_080301
0,0,0,0.00187268,0.0112766,0.0299415,0.0340524,0.048629,0.0995008,0.188825,0.225899,0.228875,0.237433,0.273841,0.323448,0.403716,0.469555,0.570747,0.617696,0.697793,0.785553,0.917964,1.13024,1.35807,1.3787,1.32681,1.26097,1.23214,1.26661,1.38154,1.58258,1.84855,2.01813,1.8263,1.17542,0.499983,18.08427798,1.02792,10.82,0.0768,1.07148,6.36,15.808,2020,10,5,8,3,30,10/5/2020,8:03:30 AM,10/05/2020 8:03:30,6.5535,101.785,25.4527,57,2403,2772,3153,0,24113,4,0,0.926353,3.06001,8:03:30 AM,51.29200167,2.63131167,,DGPS,08:03:30,34592,15.82644,3.24,6.64,2.152,,,,,,,,,0001_20201005_080301
0,0,0,0.00216546,0.012591,0.0325632,0.0363541,0.0500251,0.0985655,0.179617,0.207317,0.203988,0.206087,0.230867,0.267368,0.331455,0.387958,0.479855,0.534358,0.622997,0.72393,0.872653,1.10262,1.33105,1.33163,1.24297,1.14098,1.09938,1.1603,1.35396,1.67203,2.05867,2.27778,2.02875,1.27638,0.54259,16.91563436,1.03453,10.82,0.0768,1.07077,6.32,15.808,2020,10,5,8,3,31,10/5/2020,8:03:31 AM,10/05/2020 8:03:31,6.5535,103.886,25.0998,57,2409,2743,3175,0,24107,4,0,0.932925,2.77723,8:03:31 AM,51.291985,2.631285,,DGPS,08:03:31,34592.08,15.82708,4.184,6.552,2.464,,,,,,,,,0001_20201005_080301
0,0,0,0.00313969,0.0160095,0.0380164,0.0410723,0.0539699,0.100533,0.173671,0.194853,0.191204,0.193894,0.219074,0.256608,0.317247,0.366395,0.438197,0.469375,0.516951,0.566724,0.641428,0.769471,0.959817,1.09286,1.22968,1.36498,1.50529,1.67271,1.89225,2.17046,2.45537,2.54757,2.27051,1.55481,0.691041,17.45587979,1.02938,10.82,0.0768,1.07218,6.46,15.808,2020,10,5,8,3,32,10/5/2020,8:03:32 AM,10/05/2020 8:03:32,6.5535,129.237,26.9752,57,2432,2703,3239,0,24129,4,0,0.927068,3.02912,8:03:32 AM,51.29197,2.63126333,,DGPS,08:03:32,34592.4,15.82832,3.776,6.332,1.764,,,,,,,,,0001_20201005_080301
0,0,0,0.00263479,0.0142515,0.0350261,0.0384534,0.0525022,0.101965,0.183726,0.211532,0.20966,0.213012,0.240597,0.280618,0.345023,0.395155,0.470603,0.501803,0.563163,0.629195,0.73809,0.919967,1.14343,1.233,1.28521,1.34273,1.45833,1.67684,2.038,2.53926,3.09984,3.34652,2.7808,1.54696,0.59649,18.86377699,1.03012,10.81,0.0768,1.07077,6.46,15.809,2020,10,5,8,3,33,10/5/2020,8:03:33 AM,10/05/2020 8:03:33,6.5535,120.35,30.2344,57,2421,2741,3226,0,24128,4,0,0.928949,2.94805,8:03:33 AM,51.291955,2.63124333,,DGPS,08:03:33,34591.92,15.828,1.512,6.348,2.424,,,,,,,,,0001_20201005_080301
0,0,0,0.00186502,0.0113701,0.0305018,0.0349121,0.0502527,0.103798,0.199256,0.24036,0.245152,0.255304,0.297041,0.355068,0.447682,0.521727,0.62835,0.668079,0.740081,0.816577,0.940878,1.15207,1.4206,1.52418,1.57235,1.58545,1.60317,1.64706,1.72451,1.82289,1.92064,1.89401,1.55717,0.934408,0.396441,20.64053472,1.02277,10.82,0.0768,1.07288,6.15,15.809,2020,10,5,8,3,34,10/5/2020,8:03:34 AM,10/05/2020 8:03:34,6.5535,95.4057,27.3432,57,2392,2781,3133,0,24080,4,0,0.920509,3.31315,8:03:34 AM,51.29193333,2.63122167,,DGPS,08:03:34,34592.2,15.82956,1.784,6.46,2.056,,,,,,,,,0001_20201005_080301
0,0,0,0.00223863,0.0124675,0.0313862,0.0348679,0.0481286,0.0947099,0.17296,0.201598,0.200676,0.204022,0.22935,0.265022,0.322979,0.367715,0.435882,0.462495,0.513047,0.566998,0.656748,0.812036,1.00593,1.07518,1.08916,1.07075,1.06058,1.10799,1.25819,1.54779,1.97343,2.34457,2.24859,1.44138,0.583794,14.85089673,1.03379,10.81,0.0768,1.07359,5.97,15.811,2020,10,5,8,3,35,10/5/2020,8:03:35 AM,10/05/2020 8:03:35,6.5535,116.681,23.4427,57,2395,2739,3132,0,24051,4,0,0.929818,2.91064,8:03:35 AM,51.291915,2.6312,,DGPS,08:03:35,34592.4,15.82988,3.744,6.296,2.158,,,,,,,,,0001_20201005_080301
0,0,0,0.00209539,0.0125075,0.0330561,0.0372375,0.0515004,0.10208,0.186525,0.214663,0.209537,0.211493,0.238103,0.276558,0.34224,0.394135,0.476808,0.51612,0.589728,0.670449,0.816117,1.07254,1.42377,1.61691,1.73816,1.81511,1.89812,2.02632,2.23841,2.5567,2.96099,3.22439,2.90687,1.82756,0.72166,21.76699289,1.03306,10.82,0.0768,1.07077,6.2,15.811,2020,10,5,8,3,36,10/5/2020,8:03:36 AM,10/05/2020 8:03:36,6.5535,132.143,33.4085,57,2423,2708,3234,0,24087,4,0,0.931599,2.83409,8:03:36 AM,51.2919,2.63118,,DGPS,08:03:36,34592.48,15.83024,3.144,6.044,2.044,,,,,,,,,0001_20201005_080301
0,0,0,0.00200681,0.0118946,0.0313787,0.035667,0.0503883,0.101488,0.189528,0.22419,0.224994,0.232187,0.26638,0.313865,0.389371,0.448106,0.532963,0.559909,0.607234,0.655576,0.736703,0.882372,1.08069,1.17811,1.2661,1.36349,1.48931,1.66612,1.91103,2.21365,2.55677,2.78393,2.59858,1.73822,0.743956,18.66470141,1.03306,10.82,0.0768,1.07288,6.21,15.811,2020,10,5,8,3,37,10/5/2020,8:03:37 AM,10/05/2020 8:03:37,6.5535,124.327,29.0862,57,2407,2754,3203,0,24090,4,0,0.929767,2.91286,8:03:37 AM,51.29188333,2.63115667,,DGPS,08:03:37,34592.04,15.83044,3.392,6.02,2.508,,,,,,,,,0001_20201005_080301
0,0,0,0.00158487,0.0101998,0.0287005,0.0338681,0.0502523,0.106021,0.207124,0.251859,0.256344,0.266972,0.310924,0.371481,0.471189,0.553963,0.677858,0.732157,0.823511,0.922528,1.0766,1.32907,1.62525,1.69987,1.69544,1.65195,1.62713,1.66762,1.80293,2.03102,2.32199,2.52632,2.41649,1.78798,0.903709,22.28341657,1.01836,10.82,0.0768,1.07359,5.88,15.811,2020,10,5,8,3,38,10/5/2020,8:03:38 AM,10/05/2020 8:03:38,6.5535,102.246,32.2399,57,2376,2791,3135,0,24037,4,0,0.915941,3.51215,8:03:38 AM,51.29186333,2.63113333,,DGPS,08:03:38,34592.91667,15.83066667,2.166666667,6.175,2.872916667,,,,,,,,,0001_20201005_080301
0,0,0,0.00152202,0.00990946,0.0282001,0.0333378,0.0486861,0.100481,0.19018,0.221205,0.213995,0.212656,0.236553,0.273045,0.340818,0.398038,0.487834,0.529782,0.60188,0.679935,0.818013,1.06499,1.41366,1.61804,1.75989,1.85478,1.95606,2.13974,2.49331,3.06911,3.93862,4.7466,4.53397,2.68131,0.989581,22.79565048,1.02277,10.8,0.0768,1.07359,5.83,15.811,2020,10,5,8,3,39,10/5/2020,8:03:39 AM,10/05/2020 8:03:39,6.5535,147.135,39.6857,57,2402,2751,3155,0,24030,4,0,0.919906,3.33937,8:03:39 AM,51.291845,2.63111167,,DGPS,08:03:39,34593,15.83034615,1.415384615,6.042307692,1.607692308,,,,,,,,,0001_20201005_080301
0,0,0,0.00239355,0.0134397,0.033594,0.0366023,0.0491517,0.0947775,0.168536,0.190911,0.185135,0.18602,0.208539,0.241942,0.296344,0.337613,0.403113,0.43272,0.495045,0.563939,0.687044,0.899728,1.16134,1.25907,1.27395,1.26363,1.30318,1.43482,1.68166,2.03063,2.43585,2.64756,2.2923,1.37041,0.559436,16.93486775,1.036,10.82,0.0768,1.07148,6,15.811,2020,10,5,8,3,40,10/5/2020,8:03:40 AM,10/05/2020 8:03:40,6.5535,125.834,26.2404,57,2420,2715,3216,0,24056,4,0,0.933636,2.74673,8:03:40 AM,51.29183,2.63108667,,DGPS,08:03:40,34593.08,15.83056,1.704,5.848,1.378,,,,,,,,,0001_20201005_080301
0,0,0,0.00218808,0.0125923,0.0323168,0.0360334,0.0498895,0.09904,0.182554,0.215041,0.214798,0.220133,0.249435,0.290374,0.357045,0.410551,0.49205,0.526169,0.586471,0.651316,0.7491,0.904451,1.0737,1.09882,1.08503,1.07576,1.12117,1.25927,1.50508,1.83924,2.1834,2.3592,2.14695,1.4536,0.643917,16.33961808,1.03232,10.82,0.0768,1.07218,5.84,15.81,2020,10,5,8,3,41,10/5/2020,8:03:41 AM,10/05/2020 8:03:41,6.5535,112.857,25.1267,57,2400,2744,3193,0,24032,4,0,0.929715,2.91508,8:03:41 AM,51.29181167,2.63106333,,DGPS,08:03:41,34592.72,15.82876,2.128,5.868,1.726,,,,,,,,,0001_20201005_080301
0,0,0,0.00182579,0.0111743,0.030199,0.0348918,0.0506877,0.104744,0.20072,0.241731,0.244397,0.252864,0.291797,0.346724,0.436075,0.510556,0.620936,0.668769,0.748155,0.83431,0.958734,1.15482,1.34707,1.32429,1.23397,1.13833,1.09341,1.1304,1.26348,1.48912,1.77868,1.98767,1.84007,1.21102,0.525367,17.76418059,1.02277,10.81,0.0768,1.07077,5.65,15.809,2020,10,5,8,3,42,10/5/2020,8:03:42 AM,10/05/2020 8:03:42,6.5535,96.2189,25.107,57,2357,2782,3101,0,24002,4,0,0.922323,3.23438,8:03:42 AM,51.29179333,2.63104167,,DGPS,08:03:42,34592.52,15.82852,2.392,5.928,2.384,,,,,,,,,0001_20201005_080301
0,0,0,0.0019282,0.0117235,0.0306545,0.0337342,0.0462615,0.0928058,0.172602,0.203597,0.203594,0.208191,0.234566,0.269783,0.327161,0.371633,0.443237,0.471577,0.523471,0.578644,0.672712,0.833766,1.03702,1.11503,1.15952,1.20665,1.28929,1.4301,1.63678,1.91044,2.22629,2.43918,2.29064,1.54489,0.650218,16.5164717,1.03159,10.81,0.0768,1.07077,5.65,15.809,2020,10,5,8,3,43,10/5/2020,8:03:43 AM,10/05/2020 8:03:43,6.5535,123.048,25.6677,57,2390,2737,3153,0,24002,4,0,0.930274,2.89103,8:03:43 AM,51.291775,2.63101833,,DGPS,08:03:43,34592.4,15.82712,0.504,5.788,2.042,,,,,,,,,0001_20201005_080301
0,0,0,0.00235716,0.0132936,0.0331884,0.035926,0.0478798,0.0927048,0.166536,0.191758,0.189552,0.192523,0.216717,0.250723,0.306323,0.349668,0.419887,0.454347,0.519426,0.591249,0.709738,0.903961,1.14355,1.24694,1.31684,1.39387,1.51802,1.69958,1.91745,2.11732,2.24579,2.22614,1.95965,1.33885,0.617988,18.04132776,1.03085,10.82,0.0768,1.07077,5.79,15.81,2020,10,5,8,3,44,10/5/2020,8:03:44 AM,10/05/2020 8:03:44,6.5535,119.239,26.4298,57,2405,2719,3225,0,24024,4,0,0.929612,2.91953,8:03:44 AM,51.29175667,2.63099667,,DGPS,08:03:44,34592.44,15.82856,4.544,5.688,1.626,,,,,,,,,0001_20201005_080301
0,0,0,0.00205573,0.0123387,0.0324763,0.036479,0.0510901,0.102952,0.192075,0.225783,0.225246,0.230378,0.262556,0.308869,0.385903,0.450026,0.54621,0.587583,0.656302,0.730283,0.854435,1.07193,1.33514,1.39953,1.35491,1.2597,1.20128,1.24384,1.4255,1.73166,2.11375,2.34796,2.10687,1.29202,0.540285,17.91653083,1.02571,10.82,0.0768,1.07218,5.72,15.809,2020,10,5,8,3,45,10/5/2020,8:03:45 AM,10/05/2020 8:03:45,6.5535,100.866,26.3174,57,2375,2789,3144,0,24013,4,0,0.92376,3.17213,8:03:45 AM,51.29173667,2.63097167,,DGPS,08:03:45,34592.28,15.82964,0.352,5.752,1.206,,,,,,,,,0001_20201005_080301
0,0,0,0.0019789,0.0119998,0.0320963,0.0365486,0.0517007,0.105082,0.198476,0.237923,0.243077,0.255903,0.301572,0.363983,0.455849,0.522445,0.614101,0.634852,0.68438,0.735363,0.822235,0.97275,1.14613,1.17217,1.15302,1.11578,1.09363,1.10605,1.1607,1.24848,1.36025,1.42079,1.30759,0.904322,0.413675,16.4782753,1.02351,10.82,0.0768,1.07077,5.6,15.808,2020,10,5,8,3,46,10/5/2020,8:03:46 AM,10/05/2020 8:03:46,6.5535,91.5343,21.8849,57,2366,2809,3124,0,23994,4,0,0.922986,3.20566,8:03:46 AM,51.29171667,2.63095,,DGPS,08:03:46,34592.04,15.82688,1.4,5.804,2.086,,,,,,,,,0001_20201005_080301
0,0,0,0.00205486,0.0120495,0.03121,0.0349399,0.049044,0.0986707,0.184026,0.217128,0.217172,0.22352,0.25682,0.304882,0.380862,0.440975,0.528293,0.561023,0.621714,0.686603,0.790748,0.965797,1.16315,1.18946,1.13815,1.04775,0.970208,0.947137,1.01598,1.22077,1.63736,2.24692,2.71462,2.25488,1.08446,15.30013696,1.03453,10.82,0.0768,1.07148,5.56,15.808,2020,10,5,8,3,47,10/5/2020,8:03:47 AM,10/05/2020 8:03:47,6.5535,116.98,25.2384,57,2392,2779,3152,0,23987,4,0,0.932312,2.80351,8:03:47 AM,51.29169833,2.63092833,,DGPS,08:03:47,34592.28,15.82596,3.888,5.656,2.44,,,,,,,,,0001_20201005_080301
0,0,0,0.0023542,0.0129616,0.0323453,0.0358735,0.0495131,0.0970331,0.176815,0.207675,0.208361,0.214042,0.243041,0.283351,0.346974,0.395584,0.468588,0.496401,0.551182,0.609698,0.71021,0.882487,1.10025,1.18693,1.2122,1.18856,1.15387,1.15556,1.24586,1.47014,1.85377,2.27301,2.34119,1.66691,0.729008,15.7378598,1.03012,10.82,0.0768,1.07218,5.51,15.808,2020,10,5,8,3,48,10/5/2020,8:03:48 AM,10/05/2020 8:03:48,6.5535,114.342,24.6017,57,2374,2794,3149,0,23980,4,0,0.92773,3.00058,8:03:48 AM,51.29168167,2.63090667,,DGPS,08:03:48,34592,15.82676,5.624,5.6,2.06,,,,,,,,,0001_20201005_080301
0,0,0,0.00259109,0.0139409,0.0340211,0.0370057,0.0497201,0.0955785,0.170893,0.197682,0.19811,0.203968,0.232803,0.273722,0.338051,0.388798,0.461902,0.487802,0.534689,0.583623,0.667581,0.811894,0.994964,1.0703,1.12083,1.17334,1.25756,1.39604,1.60124,1.88188,2.20986,2.39232,2.11798,1.30556,0.540154,16.28052939,1.03747,10.82,0.0768,1.07077,5.54,15.807,2020,10,5,8,3,49,10/5/2020,8:03:49 AM,10/05/2020 8:03:49,6.5535,116.886,24.8464,57,2387,2792,3186,0,23985,4,0,0.935575,2.66376,8:03:49 AM,51.29166167,2.63088,,DGPS,08:03:49,34592,15.82529167,4.875,5.579166667,2.222916667,,,,,,,,,0001_20201005_080301
0,0,0,0.00189968,0.0118078,0.0320273,0.0364474,0.0512278,0.103915,0.195105,0.230053,0.23093,0.239436,0.27824,0.3321,0.417256,0.483931,0.583478,0.621879,0.694684,0.773223,0.910277,1.14586,1.4287,1.5015,1.46298,1.35302,1.24357,1.19304,1.23946,1.39915,1.66831,1.89961,1.78774,1.15735,0.490912,18.19519698,1.02792,10.81,0.0768,1.07218,5.51,15.808,2020,10,5,8,3,50,10/5/2020,8:03:50 AM,10/05/2020 8:03:50,6.5535,96.2495,25.1991,57,2388,2790,3136,0,23980,4,0,0.925745,3.08626,8:03:50 AM,51.29164167,2.630855,,DGPS,08:03:50,34592.4,15.82588,1.584,5.564,2.078,,,,,,,,,0001_20201005_080301
0,0,0,0.00234766,0.0132211,0.0332935,0.0366131,0.0496501,0.096345,0.172809,0.197975,0.194274,0.197268,0.223076,0.260233,0.31956,0.365004,0.434437,0.461895,0.513787,0.568963,0.659916,0.815961,1.00779,1.07426,1.08881,1.08429,1.11191,1.22892,1.50776,2.03103,2.88407,3.82717,4.15388,2.99835,1.29139,15.75139846,1.02865,10.79,0.0768,1.07077,5.45,15.808,2020,10,5,8,3,51,10/5/2020,8:03:51 AM,10/05/2020 8:03:51,6.5535,156.034,30.9063,57,2381,2774,3154,0,23971,4,0,0.927624,3.00515,8:03:51 AM,51.29162333,2.63083167,,DGPS,08:03:51,34592.69231,15.82719231,1.684615385,5.592307692,1.675,,,,,,,,,0001_20201005_080301
0,0,0,0.00190162,0.0111768,0.0297252,0.0343797,0.0492638,0.0993905,0.185888,0.220085,0.220407,0.226266,0.25798,0.300582,0.369559,0.420844,0.499693,0.528658,0.589425,0.653715,0.768468,0.96991,1.233,1.35148,1.40735,1.44198,1.53314,1.76105,2.21771,2.99411,4.12285,5.17781,5.0963,3.36607,1.39519,20.37713762,1.02277,10.82,0.0768,1.07077,5.49,15.809,2020,10,5,8,3,52,10/5/2020,8:03:52 AM,10/05/2020 8:03:52,6.5535,146.504,39.5354,57,2397,2783,3203,0,23977,4,0,0.922323,3.23438,8:03:52 AM,51.29160333,2.63081,,DGPS,08:03:52,34592.72,15.8286,3.536,5.5,1.678,,,,,,,,,0001_20201005_080301
0,0,0,0.00157587,0.0100396,0.0282536,0.0336366,0.050357,0.106213,0.207483,0.253421,0.258083,0.269302,0.313042,0.37163,0.46502,0.539014,0.649037,0.689769,0.765578,0.846866,0.972583,1.17843,1.39576,1.39621,1.31672,1.21387,1.1486,1.16229,1.28735,1.55134,1.95117,2.31865,2.26378,1.51986,0.643374,18.48147367,1.02204,10.82,0.0768,1.07288,5.47,15.81,2020,10,5,8,3,53,10/5/2020,8:03:53 AM,10/05/2020 8:03:53,6.5535,104.353,27.1783,57,2381,2813,3123,0,23973,4,0,0.919848,3.34189,8:03:53 AM,51.29158333,2.63079167,,DGPS,08:03:53,34592.88,15.83044,1.64,5.54,2.194,,,,,,,,,0001_20201005_080301
0,0,0,0.00155444,0.00979899,0.0274897,0.0328495,0.0493783,0.104316,0.204717,0.252149,0.259178,0.272235,0.318581,0.380672,0.480205,0.560675,0.676804,0.718408,0.790209,0.866044,0.988072,1.19444,1.44333,1.506,1.49854,1.43827,1.36069,1.30387,1.30355,1.38917,1.58396,1.82636,1.89537,1.44715,0.665374,19.43119593,1.0191,10.81,0.0768,1.07218,5.32,15.811,2020,10,5,8,3,54,10/5/2020,8:03:54 AM,10/05/2020 8:03:54,6.5535,94.2519,26.8494,57,2360,2784,3088,0,23950,4,0,0.917804,3.43085,8:03:54 AM,51.29156167,2.63077,,DGPS,08:03:54,34592.8,15.83056,2.88,5.572,2.258,,,,,,,,,0001_20201005_080301
0,0,0,0.00166348,0.0103721,0.0283606,0.0327445,0.0468958,0.0951535,0.177624,0.207542,0.20402,0.208315,0.237666,0.278893,0.345337,0.394469,0.469538,0.494939,0.553855,0.616536,0.735602,0.94618,1.21755,1.33597,1.39784,1.45544,1.57576,1.81452,2.21972,2.8135,3.58141,4.19218,3.92118,2.43372,0.96968,19.91600598,1.03085,10.82,0.0768,1.07077,5.3,15.811,2020,10,5,8,3,55,10/5/2020,8:03:55 AM,10/05/2020 8:03:55,6.5535,144.926,35.0142,57,2368,2780,3150,0,23947,4,0,0.929612,2.91953,8:03:55 AM,51.29154333,2.63074833,,DGPS,08:03:55,34592,15.83092,4.416,5.38,2.172,,,,,,,,,0001_20201005_080301
0,0,0,0.00218786,0.0123828,0.0313672,0.034842,0.0483819,0.096096,0.177123,0.207641,0.20663,0.210968,0.239262,0.280663,0.349124,0.406464,0.488931,0.520452,0.56788,0.616952,0.687954,0.806969,0.953485,1.00002,1.0414,1.10798,1.22924,1.43479,1.74494,2.16246,2.64186,2.94417,2.67837,1.73535,0.755069,16.66658576,1.03012,10.82,0.0768,1.07288,5.39,15.81,2020,10,5,8,3,56,10/5/2020,8:03:56 AM,10/05/2020 8:03:56,6.5535,119.827,27.4214,57,2380,2783,3175,0,23961,4,0,0.927122,3.02682,8:03:56 AM,51.29152667,2.630725,,DGPS,08:03:56,34592.04,15.8282,3.752,5.292,1.886,,,,,,,,,0001_20201005_080301
0,0,0,0.00229971,0.0131257,0.0332125,0.0363889,0.0491586,0.0954773,0.170951,0.193727,0.187768,0.18682,0.206327,0.236326,0.287648,0.329515,0.395969,0.427483,0.481672,0.540724,0.626009,0.761583,0.90831,0.928443,0.908825,0.885704,0.900282,0.993847,1.2217,1.66034,2.4031,3.28325,3.5036,2.31136,0.885683,13.66963571,1.03967,10.82,0.0768,1.07218,5.43,15.809,2020,10,5,8,3,57,10/5/2020,8:03:57 AM,10/05/2020 8:03:57,6.5535,141.803,26.0566,57,2381,2756,3151,0,23968,4,0,0.936332,2.63139,8:03:57 AM,51.29150333,2.63070833,,DGPS,08:03:57,34592.2,15.82772,0.832,5.444,1.488,,,,,,,,,0001_20201005_080301
0,0,0,0.00135919,0.00931055,0.0268778,0.0312791,0.0452744,0.0947758,0.182144,0.214695,0.210996,0.213205,0.240605,0.280189,0.3458,0.39619,0.470055,0.487938,0.525968,0.564463,0.629321,0.741853,0.87379,0.901179,0.924117,0.967893,1.05157,1.21187,1.51474,2.05003,2.86623,3.62701,3.56918,2.28726,0.910705,15.20748784,1.02865,10.82,0.0768,1.07288,5.4,15.808,2020,10,5,8,3,58,10/5/2020,8:03:58 AM,10/05/2020 8:03:58,6.5535,141.035,28.4679,57,2371,2735,3126,0,23963,4,0,0.925799,3.08392,8:03:58 AM,51.29148167,2.63068833,,DGPS,08:03:58,34593.12,15.82664,1.304,5.5,1.566,,,,,,,,,0001_20201005_080301
0,0,0,0.00249792,0.0131376,0.0314251,0.033817,0.0452095,0.0868808,0.15595,0.182848,0.184596,0.190361,0.215408,0.249227,0.301651,0.34091,0.399322,0.41827,0.454693,0.492068,0.554899,0.66266,0.805642,0.875427,0.939123,1.01826,1.14538,1.35317,1.65335,2.05577,2.49762,2.74234,2.46265,1.58735,0.648974,14.86195292,1.03085,10.82,0.0768,1.07218,5.47,15.807,2020,10,5,8,3,59,10/5/2020,8:03:59 AM,10/05/2020 8:03:59,6.5535,126.498,24.8009,57,2389,2718,3181,0,23974,4,0,0.928392,2.97206,8:03:59 AM,51.29146333,2.63066833,,DGPS,08:03:59,34592.72,15.826,2.36,5.5,1.324,,,,,,,,,0001_20201005_080301
0,0,0,0.00207754,0.0118922,0.0302737,0.0335679,0.0463348,0.0917121,0.168841,0.19988,0.202126,0.209858,0.240905,0.281736,0.341039,0.380753,0.436979,0.443187,0.466654,0.488954,0.532998,0.617286,0.738726,0.808816,0.9016,1.03605,1.22437,1.48201,1.82782,2.27986,2.82339,3.20426,2.95258,1.9106,0.78462,15.52630624,1.03747,10.82,0.0768,1.07077,5.56,15.807,2020,10,5,8,4,0,10/5/2020,8:04:00 AM,10/05/2020 8:04:00,6.5535,137.067,27.2018,57,2374,2728,3154,0,23987,4,0,0.935575,2.66376,8:04:00 AM,51.29144333,2.630655,,DGPS,08:04:00,34592.2,15.826,3.648,5.54,1.834,,,,,,,,,0001_20201005_080301
0,0,0,0.00210822,0.0124621,0.032793,0.0370467,0.0517636,0.104014,0.194098,0.229685,0.231564,0.239917,0.277499,0.330333,0.415077,0.484045,0.584682,0.625226,0.693755,0.767199,0.884731,1.08129,1.3102,1.35853,1.3326,1.26379,1.1992,1.17438,1.21206,1.31649,1.4677,1.55276,1.39254,0.915147,0.399895,17.44653862,1.03085,10.82,0.0768,1.07288,5.52,15.807,2020,10,5,8,4,1,10/5/2020,8:04:01 AM,10/05/2020 8:04:01,6.5535,86.3515,23.1746,57,2371,2739,3135,0,23982,4,0,0.927783,2.9983,8:04:01 AM,51.29142167,2.630645,,DGPS,08:04:01,34592,15.82516,2.52,5.648,1.854,,,,,,,,,0001_20201005_080301
0,0,0,0.00221059,0.012497,0.0317128,0.0352892,0.0489169,0.0968814,0.178165,0.209849,0.21028,0.215728,0.245138,0.286769,0.35288,0.403618,0.477434,0.502221,0.550377,0.600743,0.685403,0.831025,1.01355,1.0817,1.1186,1.14652,1.19397,1.2904,1.46505,1.7435,2.1247,2.44178,2.35693,1.59757,0.680096,16.03042789,1.02792,10.81,0.0768,1.07218,5.46,15.807,2020,10,5,8,4,2,10/5/2020,8:04:02 AM,10/05/2020 8:04:02,6.5535,119.227,25.2315,57,2363,2735,3109,0,23972,4,0,0.925745,3.08626,8:04:02 AM,51.29139833,2.63063333,,DGPS,08:04:02,34592.36,15.827,1.728,5.592,2.594,,,,,,,,,0001_20201005_080301
0,0,0,0.00247658,0.0135498,0.0329606,0.0351827,0.0464816,0.0895519,0.160665,0.186856,0.1877,0.193838,0.221484,0.260638,0.322468,0.370968,0.440406,0.463813,0.504463,0.545947,0.617888,0.744139,0.912821,0.994153,1.05406,1.11158,1.21176,1.41518,1.79441,2.40529,3.22519,3.83243,3.46912,2.05117,0.73784,16.34073018,1.03673,10.82,0.0768,1.07288,5.51,15.808,2020,10,5,8,4,3,10/5/2020,8:04:03 AM,10/05/2020 8:04:03,6.5535,144.081,29.6565,57,2376,2735,3183,0,23980,4,0,0.933073,2.77086,8:04:03 AM,51.29137833,2.63062,,DGPS,08:04:03,34592.5,15.826,2.466666667,5.508333333,1.575,,,,,,,,,0001_20201005_080301
0,0,0,0.00221696,0.0128105,0.0322899,0.0348431,0.0463644,0.0900982,0.162254,0.187058,0.185984,0.191721,0.220081,0.258686,0.316186,0.356145,0.417567,0.436685,0.48245,0.530567,0.618345,0.770588,0.969617,1.06627,1.12448,1.14973,1.17667,1.26664,1.48292,1.88519,2.55498,3.37492,3.6524,2.56517,1.06499,15.47445706,1.03379,10.82,0.0768,1.07288,5.81,15.807,2020,10,5,8,4,4,10/5/2020,8:04:04 AM,10/05/2020 8:04:04,6.5535,145.536,28.6869,57,2396,2750,3202,0,24026,4,0,0.930428,2.88442,8:04:04 AM,51.29135833,2.63060333,,DGPS,08:04:04,34592.61538,15.82684615,2.846153846,5.538461538,1.323076923,,,,,,,,,0001_20201005_080301
0,0,0,0.00205273,0.0122106,0.032027,0.0360317,0.0505716,0.101879,0.190152,0.224368,0.223927,0.229612,0.262119,0.307449,0.379875,0.435053,0.516089,0.541861,0.596498,0.653829,0.760023,0.950506,1.20476,1.3247,1.38705,1.40437,1.41914,1.47615,1.61793,1.87544,2.27277,2.65156,2.57463,1.70719,0.740827,18.21567363,1.02277,10.82,0.0768,1.07288,5.65,15.807,2020,10,5,8,4,5,10/5/2020,8:04:05 AM,10/05/2020 8:04:05,6.5535,118.287,28.1627,57,2381,2748,3130,0,24001,4,0,0.920509,3.31315,8:04:05 AM,51.29133833,2.63058667,,DGPS,08:04:05,34592.44,15.82636,3.984,5.748,2.034,,,,,,,,,0001_20201005_080301
0,0,0,0.00214967,0.0124451,0.031401,0.0339245,0.0454601,0.0891344,0.162059,0.188759,0.187317,0.191449,0.216213,0.250642,0.303228,0.339841,0.393336,0.403059,0.431154,0.459193,0.514045,0.613677,0.73995,0.780719,0.79604,0.811936,0.870023,1.0198,1.31068,1.82188,2.56384,3.28828,3.30726,2.25069,0.925529,13.01951477,1.03232,10.82,0.0768,1.07288,5.66,15.807,2020,10,5,8,4,6,10/5/2020,8:04:06 AM,10/05/2020 8:04:06,6.5535,148.846,25.3551,57,2387,2724,3156,0,24004,4,0,0.929106,2.94132,8:04:06 AM,51.29131833,2.63056833,,DGPS,08:04:06,34592.64,15.82652,3.92,5.768,3.17,,,,,,,,,0001_20201005_080301
0,0,0,0.00210792,0.012429,0.0331323,0.0384682,0.0550286,0.108053,0.192576,0.210908,0.192238,0.18171,0.191571,0.211782,0.252612,0.287847,0.345647,0.371972,0.414781,0.460967,0.520885,0.618154,0.729398,0.752369,0.76244,0.782116,0.832336,0.941963,1.1547,1.55561,2.21259,2.98697,3.21071,2.24917,0.906454,12.21380102,1.03526,10.82,0.0768,1.07007,5.8,15.805,2020,10,5,8,4,7,10/5/2020,8:04:07 AM,10/05/2020 8:04:07,6.5535,145.364,23.7797,57,2388,2712,3179,0,24025,4,0,0.934201,2.72254,8:04:07 AM,51.29129833,2.63055333,,DGPS,08:04:07,34592.53846,15.82561538,2.538461538,5.7,1.857692308,,,,,,,,,0001_20201005_080301
0,0,0,0.00226862,0.0127266,0.0316808,0.0344341,0.0467166,0.0920349,0.168785,0.199231,0.201296,0.208636,0.238789,0.279914,0.343463,0.391781,0.462883,0.486241,0.533261,0.582519,0.660845,0.787816,0.91796,0.916649,0.879634,0.85184,0.881016,1.01847,1.32621,1.87029,2.67365,3.45741,3.54124,2.38652,0.959655,14.42739062,1.03453,10.81,0.0768,1.07218,5.81,15.805,2020,10,5,8,4,8,10/5/2020,8:04:08 AM,10/05/2020 8:04:08,6.5535,139.443,27.4459,57,2370,2732,3158,0,24027,4,0,0.9317,2.82976,8:04:08 AM,51.29127833,2.63054,,DGPS,08:04:08,34592.25,15.82345833,1.55,5.775,1.741666667,,,,,,,,,0001_20201005_080301
0,0,0,0.00275664,0.0138997,0.0327588,0.0355101,0.047322,0.0888453,0.155172,0.177905,0.176437,0.179854,0.202092,0.233651,0.28185,0.317601,0.368643,0.381997,0.409308,0.436731,0.477386,0.544594,0.619503,0.629734,0.641565,0.677183,0.75688,0.904907,1.1486,1.55226,2.22192,3.2245,4.10667,3.60366,1.68081,11.49494554,1.04114,10.82,0.0768,1.07218,5.84,15.806,2020,10,5,8,4,9,10/5/2020,8:04:09 AM,10/05/2020 8:04:09,6.5535,165.575,26.3325,57,2398,2719,3184,0,24032,4,0,0.937656,2.57489,8:04:09 AM,51.291255,2.63052833,,DGPS,08:04:09,34592.46154,15.82419231,3.707692308,5.884615385,2.026923077,,,,,,,,,0001_20201005_080301
0,0,0,0.00180826,0.0105344,0.0274656,0.0312313,0.0443721,0.0889466,0.165206,0.196477,0.194517,0.19641,0.216245,0.241779,0.285095,0.315691,0.368917,0.388525,0.4317,0.477267,0.559933,0.704453,0.89282,0.976954,1.0228,1.05092,1.09958,1.23003,1.51774,2.09843,3.11626,4.58723,5.70314,4.78602,2.06571,14.83584726,1.02498,10.81,0.0768,1.07218,5.83,15.808,2020,10,5,8,4,10,10/5/2020,8:04:10 AM,10/05/2020 8:04:10,6.5535,184.772,35.0942,57,2389,2720,3157,0,24030,4,0,0.923098,3.2008,8:04:10 AM,51.291235,2.63051833,,DGPS,08:04:10,34592.75,15.82645833,3.55,5.9,2.2,,,,,,,,,0001_20201005_080301
0,0,0,0.0019841,0.0119924,0.031454,0.0347602,0.0473237,0.0937968,0.171909,0.199233,0.196836,0.201327,0.229851,0.26974,0.331486,0.375117,0.437934,0.450551,0.48427,0.517805,0.58922,0.726944,0.932496,1.06254,1.16735,1.24263,1.30837,1.41725,1.64808,2.09619,2.89272,3.87883,4.26603,3.02843,1.3033,16.2784402,1.02865,10.81,0.0768,1.07218,5.83,15.809,2020,10,5,8,4,11,10/5/2020,8:04:11 AM,10/05/2020 8:04:11,6.5535,142.506,31.6477,57,2375,2748,3156,0,24030,4,0,0.926407,3.05768,8:04:11 AM,51.291215,2.63050833,,DGPS,08:04:11,34592,15.82852,2.096,5.9,2.182,,,,,,,,,0001_20201005_080301
0,0,0,0.00169465,0.0105011,0.0282867,0.0322107,0.0459814,0.0940532,0.177766,0.209921,0.207886,0.211237,0.238639,0.276553,0.338933,0.386221,0.459636,0.485889,0.537746,0.592013,0.687582,0.859544,1.10503,1.25176,1.37897,1.50518,1.66707,1.91096,2.27877,2.7828,3.35052,3.64787,3.16949,1.8965,0.754768,19.76283375,1.03379,10.82,0.0768,1.07288,5.89,15.81,2020,10,5,8,4,12,10/5/2020,8:04:12 AM,10/05/2020 8:04:12,6.5535,133.354,32.582,57,2410,2728,3199,0,24039,4,0,0.930428,2.88442,8:04:12 AM,51.29119333,2.63049833,,DGPS,08:04:12,34592.5,15.83007692,1.076923077,5.834615385,1.915384615,,,,,,,,,0001_20201005_080301
0,0,0,0.00149516,0.00998173,0.0282223,0.0324998,0.0468343,0.0980678,0.189033,0.223923,0.222886,0.228524,0.263511,0.315099,0.400875,0.471707,0.573183,0.608694,0.667487,0.728589,0.826666,0.99528,1.20761,1.28411,1.34519,1.41669,1.53583,1.74679,2.06402,2.43626,2.7532,2.81588,2.41098,1.4644,0.573839,19.96905809,1.02498,10.82,0.0768,1.07148,5.85,15.811,2020,10,5,8,4,13,10/5/2020,8:04:13 AM,10/05/2020 8:04:13,6.5535,117.5,29.9873,57,2384,2733,3137,0,24033,4,0,0.923704,3.17454,8:04:13 AM,51.29117167,2.630485,,DGPS,08:04:13,34592.875,15.83070833,2.866666667,5.929166667,1.925,,,,,,,,,0001_20201005_080301
0,0,0,0.00206939,0.0119967,0.0308603,0.0343053,0.0471622,0.0929544,0.169451,0.195595,0.192694,0.195542,0.221444,0.259844,0.322705,0.373042,0.446646,0.474051,0.522154,0.572627,0.655498,0.796535,0.97451,1.0413,1.07909,1.11381,1.17551,1.297,1.51252,1.87772,2.42691,2.99312,3.04987,2.12408,0.891967,15.68863629,1.03526,10.82,0.0768,1.07288,5.84,15.811,2020,10,5,8,4,14,10/5/2020,8:04:14 AM,10/05/2020 8:04:14,6.5535,129.454,27.1746,57,2374,2742,3154,0,24031,4,0,0.931751,2.8276,8:04:14 AM,51.29115333,2.63046667,,DGPS,08:04:14,34592.72,15.83148,3.664,5.944,2.098,,,,,,,,,0001_20201005_080301
0,0,0,0.00117396,0.00829015,0.0245319,0.0291207,0.043627,0.0937221,0.183919,0.217038,0.210205,0.208784,0.231532,0.265069,0.3299,0.38956,0.493669,0.562503,0.665361,0.783452,0.924157,1.12383,1.35223,1.4295,1.52238,1.66351,1.86371,2.15284,2.55986,3.06719,3.49998,3.38064,2.40438,1.09332,0.361428,22.40066481,1.02645,10.82,0.0768,1.07218,6.02,15.811,2020,10,5,8,4,15,10/5/2020,8:04:15 AM,10/05/2020 8:04:15,6.5535,125.688,33.1404,57,2411,2728,3218,0,24059,4,0,0.924421,3.14349,8:04:15 AM,51.29113333,2.63045167,,DGPS,08:04:15,34592.53846,15.83153846,4.215384615,5.826923077,2.175,,,,,,,,,0001_20201005_080301
0,0,0,0.00187602,0.0112477,0.0295775,0.0332631,0.047004,0.0960574,0.182771,0.220768,0.225061,0.234055,0.269156,0.315495,0.389701,0.445393,0.53119,0.564598,0.634112,0.708503,0.84253,1.07325,1.38395,1.55136,1.67383,1.78109,1.92281,2.13956,2.4573,2.89342,3.42794,3.70806,3.2057,1.87361,0.706397,22.65892872,1.01836,10.81,0.0768,1.07077,5.94,15.811,2020,10,5,8,4,16,10/5/2020,8:04:16 AM,10/05/2020 8:04:16,6.5535,122.243,35.5806,57,2394,2725,3140,0,24047,4,0,0.918348,3.40717,8:04:16 AM,51.29111333,2.63043833,,DGPS,08:04:16,34592.66667,15.83075,3.5,5.9875,3.004166667,,,,,,,,,0001_20201005_080301
0,0,0,0.00231357,0.0128519,0.0321933,0.0354614,0.0480666,0.0931004,0.167188,0.19248,0.191123,0.195872,0.223397,0.263012,0.323952,0.37062,0.434758,0.450032,0.474068,0.497132,0.527092,0.584295,0.665131,0.696645,0.742222,0.813712,0.931697,1.14185,1.50172,2.08274,2.84522,3.41376,3.17469,1.98389,0.743293,13.69472517,1.03012,10.82,0.0768,1.07077,5.84,15.812,2020,10,5,8,4,17,10/5/2020,8:04:17 AM,10/05/2020 8:04:17,6.5535,143.315,25.8556,57,2367,2722,3123,0,24032,4,0,0.928949,2.94805,8:04:17 AM,51.29109333,2.63042667,,DGPS,08:04:17,34592.88462,15.83111538,1.453846154,6.065384615,1.617307692,,,,,,,,,0001_20201005_080301
0,0,0,0.00204681,0.0120063,0.0311488,0.0347261,0.0478882,0.0947909,0.173246,0.199535,0.195218,0.195651,0.217709,0.250629,0.307091,0.35244,0.422694,0.452991,0.507367,0.565645,0.654852,0.799054,0.974724,1.04325,1.10448,1.19727,1.36194,1.63399,2.03664,2.56383,3.11256,3.35974,2.8881,1.71222,0.653573,17.43285311,1.03306,10.81,0.0768,1.07218,6.27,15.812,2020,10,5,8,4,18,10/5/2020,8:04:18 AM,10/05/2020 8:04:18,6.5535,132.475,29.159,57,2395,2713,3223,0,24099,4,0,0.930377,2.88662,8:04:18 AM,51.29107333,2.63041833,,DGPS,08:04:18,34593,15.83158333,2.3,5.875,1.235416667,,,,,,,,,0001_20201005_080301
0,0,0,0.00172201,0.0107412,0.0290419,0.0329309,0.0466654,0.0957766,0.181934,0.216513,0.217054,0.223494,0.255355,0.297749,0.364946,0.412639,0.485391,0.505248,0.555447,0.607499,0.711391,0.900557,1.16778,1.32233,1.44566,1.55328,1.6846,1.87537,2.15208,2.54226,3.02468,3.39657,3.19248,2.1219,0.892353,19.89545501,1.02645,10.82,0.0768,1.07288,6.41,15.812,2020,10,5,8,4,19,10/5/2020,8:04:19 AM,10/05/2020 8:04:19,6.5535,128.756,32.5234,57,2413,2737,3232,0,24121,4,0,0.923815,3.16973,8:04:19 AM,51.29105333,2.63041333,,DGPS,08:04:19,34593,15.831,2.723076923,6,1.6,,,,,,,,,0001_20201005_080301
0,0,0,0.00132261,0.00898915,0.026637,0.0327211,0.0510708,0.112182,0.228467,0.286632,0.296624,0.31194,0.366338,0.439332,0.557695,0.653528,0.791835,0.839318,0.923956,1.01357,1.16234,1.42031,1.73651,1.81396,1.78584,1.67094,1.51615,1.37472,1.29476,1.30267,1.39686,1.4898,1.40271,0.971289,0.432907,22.02035766,1.01175,10.82,0.0768,1.07288,6.04,15.812,2020,10,5,8,4,20,10/5/2020,8:04:20 AM,10/05/2020 8:04:20,6.5535,82.464,27.7139,57,2381,2775,3095,0,24062,4,0,0.91059,3.74652,8:04:20 AM,51.29103167,2.63040333,,DGPS,08:04:20,34593,15.831,5.466666667,6.358333333,2.377083333,,,,,,,,,0001_20201005_080301
0,0,0,0.00142692,0.00919928,0.0259594,0.0306807,0.0454642,0.0956589,0.186105,0.225641,0.228077,0.236218,0.271708,0.31938,0.399708,0.464867,0.565956,0.611161,0.687086,0.768692,0.900502,1.12336,1.41774,1.55347,1.63543,1.66348,1.66836,1.72375,1.92604,2.38397,3.1561,4.0229,4.13058,2.72768,1.03818,21.1690904,1.02351,10.82,0.0768,1.07148,5.93,15.812,2020,10,5,8,4,21,10/5/2020,8:04:21 AM,10/05/2020 8:04:21,6.5535,130.973,36.2445,57,2370,2736,3096,0,24045,4,0,0.92238,3.23193,8:04:21 AM,51.29101333,2.63038833,,DGPS,08:04:21,34593.56,15.831,3.776,6.288,2.22,,,,,,,,,0001_20201005_080301
0,0,0,0.0017509,0.0107071,0.0289434,0.0332554,0.0474756,0.0966688,0.181533,0.211933,0.208295,0.208948,0.232648,0.267504,0.332585,0.38816,0.479,0.530788,0.618995,0.717697,0.88502,1.17547,1.59044,1.85974,2.07801,2.26617,2.47393,2.73781,3.07462,3.41894,3.63948,3.42181,2.58852,1.41619,0.5598,26.1570372,1.02277,10.79,0.0768,1.07288,6.48,15.811,2020,10,5,8,4,22,10/5/2020,8:04:22 AM,10/05/2020 8:04:22,6.5535,131.617,37.7828,57,2399,2690,3221,0,24132,4,0,0.920509,3.31315,8:04:22 AM,51.29099667,2.63037333,,DGPS,08:04:22,34594.48,15.831,4.504,5.968,1.052,,,,,,,,,0001_20201005_080301
0,0,0,0.00235349,0.0133842,0.0338836,0.0372139,0.0502011,0.097269,0.174157,0.19901,0.193801,0.195194,0.21823,0.251025,0.305701,0.347833,0.416444,0.448303,0.509431,0.576204,0.695805,0.907022,1.18967,1.33275,1.39531,1.40129,1.41475,1.49588,1.71039,2.11987,2.78709,3.45402,3.37271,2.12738,0.802405,17.73237529,1.03232,10.82,0.0768,1.07359,6.73,15.811,2020,10,5,8,4,23,10/5/2020,8:04:23 AM,10/05/2020 8:04:23,6.5535,132.663,30.276,57,2418,2741,3232,0,24171,4,0,0.928497,2.96754,8:04:23 AM,51.29097833,2.63036333,,DGPS,08:04:23,34594.44,15.831,1.168,6.136,0.992,,,,,,,,,0001_20201005_080301
0,0,0,0.00211879,0.0123607,0.0319792,0.0357698,0.0500303,0.100865,0.189237,0.225608,0.229384,0.238566,0.275443,0.325703,0.404697,0.467025,0.558545,0.592331,0.657725,0.728075,0.84447,1.03747,1.251,1.27803,1.22496,1.13398,1.05635,1.02103,1.03994,1.11205,1.24085,1.37041,1.35878,1.01668,0.497078,16.12474279,1.03306,10.82,0.0768,1.07288,6.41,15.81,2020,10,5,8,4,24,10/5/2020,8:04:24 AM,10/05/2020 8:04:24,6.5535,94.6526,21.6085,56,2383,2770,3132,0,24121,4,0,0.929767,2.91286,8:04:24 AM,51.29095667,2.63035333,,DGPS,08:04:24,34593.8,15.8304,4.448,6.604,2.132,,,,,,,,,0001_20201005_080301
0,0,0,0.0019103,0.0116563,0.0310007,0.0347221,0.0479112,0.0955205,0.175472,0.201149,0.19667,0.197507,0.221323,0.257807,0.320962,0.374788,0.454476,0.486743,0.534152,0.583622,0.658781,0.789945,0.960748,1.02731,1.06672,1.09546,1.14187,1.25261,1.48374,1.89508,2.52584,3.15248,3.22428,2.19318,0.876366,15.5996561,1.03012,10.82,0.0768,1.07007,6.3,15.808,2020,10,5,8,4,25,10/5/2020,8:04:25 AM,10/05/2020 8:04:25,6.5535,131.926,27.5718,57,2386,2747,3132,0,24103,4,0,0.92956,2.92176,8:04:25 AM,51.29093833,2.63034667,,DGPS,08:04:25,34593.04,15.8262,3.552,6.604,2.6,,,,,,,,,0001_20201005_080301
0,0,0,0.00215083,0.0124021,0.0312661,0.0338589,0.0454668,0.0890552,0.161752,0.188016,0.186012,0.189209,0.211256,0.239994,0.286045,0.317719,0.37239,0.393207,0.446479,0.504436,0.61458,0.801158,1.01864,1.08773,1.11567,1.17312,1.32888,1.64536,2.17771,2.92924,3.70011,4.00228,3.38242,1.99859,0.725999,17.60280293,1.0382,10.82,0.0768,1.07218,6.59,15.808,2020,10,5,8,4,26,10/5/2020,8:04:26 AM,10/05/2020 8:04:26,6.5535,151.436,31.4122,57,2420,2707,3229,0,24149,4,0,0.935009,2.68797,8:04:26 AM,51.29092333,2.630335,,DGPS,08:04:26,34593.4,15.82628,5.864,6.336,2.434,,,,,,,,,0001_20201005_080301
0,0,0,0.00159369,0.0103273,0.028953,0.033669,0.0487243,0.100846,0.192058,0.225859,0.222314,0.224776,0.254476,0.298591,0.377371,0.444486,0.5476,0.596137,0.675994,0.762294,0.918223,1.20071,1.62464,1.91512,2.15656,2.33644,2.46277,2.55249,2.64037,2.72918,2.79362,2.66594,2.17057,1.32749,0.570655,25.58257229,1.0213,10.82,0.0768,1.07288,6.82,15.808,2020,10,5,8,4,27,10/5/2020,8:04:27 AM,10/05/2020 8:04:27,6.5535,113.143,35.1108,57,2434,2714,3215,0,24184,4,0,0.919186,3.37066,8:04:27 AM,51.29090333,2.63032333,,DGPS,08:04:27,34593.16,15.82764,4.6,6.416,1.97,,,,,,,,,0001_20201005_080301
0,0,0,0.00152609,0.00965462,0.0268281,0.0314404,0.0461418,0.0960213,0.184714,0.222554,0.2238,0.229741,0.259852,0.297728,0.359201,0.402503,0.473028,0.495409,0.546283,0.599122,0.69401,0.862175,1.09486,1.22427,1.33711,1.44527,1.57889,1.82304,2.28029,3.04202,4.04506,4.9157,4.89168,3.32211,1.34928,19.88748231,1.02571,10.82,0.0768,1.07077,6.69,15.808,2020,10,5,8,4,28,10/5/2020,8:04:28 AM,10/05/2020 8:04:28,6.5535,148.6,38.4113,57,2418,2714,3193,0,24165,4,0,0.924974,3.1196,8:04:28 AM,51.29088333,2.630315,,DGPS,08:04:28,34595.12,15.8278,1.936,6.72,1.926,,,,,,,,,0001_20201005_080301
0,0,0,0.00191897,0.0117713,0.0315285,0.0356524,0.0500693,0.10129,0.189206,0.221554,0.218297,0.221224,0.249134,0.288274,0.354825,0.406834,0.489055,0.524032,0.588412,0.65724,0.782037,1.00718,1.3402,1.56483,1.75616,1.9105,2.04376,2.18424,2.36247,2.59988,2.90195,3.08258,2.78802,1.81872,0.762588,22.19157447,1.02645,10.82,0.0768,1.07218,6.69,15.809,2020,10,5,8,4,29,10/5/2020,8:04:29 AM,10/05/2020 8:04:29,6.5535,131.085,33.5454,57,2409,2725,3189,0,24165,4,0,0.924421,3.14349,8:04:29 AM,51.29086667,2.63030833,,DGPS,08:04:29,34596.72,15.828,2.016,6.744,2.302,,,,,,,,,0001_20201005_080301
0,0,0,0.00183486,0.011352,0.0309299,0.0357183,0.0513259,0.104939,0.198056,0.233455,0.230636,0.233873,0.264705,0.309735,0.389078,0.456884,0.560481,0.609462,0.688662,0.774328,0.922342,1.18307,1.5567,1.78909,1.96436,2.05676,2.08391,2.10164,2.17283,2.32188,2.53004,2.61399,2.27854,1.42498,0.598463,23.33803696,1.02277,10.79,0.0768,1.07218,6.75,15.809,2020,10,5,8,4,30,10/5/2020,8:04:30 AM,10/05/2020 8:04:30,6.5535,109.306,32.7841,57,2417,2712,3200,0,24173,4,0,0.921113,3.28691,8:04:30 AM,51.29084833,2.6303,,DGPS,08:04:30,34596.84,15.82844,4.16,6.7,2.17,,,,,,,,,0001_20201005_080301
0,0,0,0.00195437,0.0114347,0.0294114,0.0325717,0.045126,0.0902013,0.166863,0.194781,0.191763,0.192542,0.212939,0.241749,0.294752,0.340874,0.417937,0.461163,0.530376,0.606979,0.724831,0.918087,1.15495,1.23954,1.26292,1.26595,1.30991,1.46252,1.81071,2.49225,3.62177,4.88583,5.00437,3.14313,1.13598,17.70508547,1.02938,10.82,0.0768,1.07218,6.84,15.809,2020,10,5,8,4,31,10/5/2020,8:04:31 AM,10/05/2020 8:04:31,6.5535,150.553,35.4962,57,2434,2703,3213,0,24188,4,0,0.927068,3.02912,8:04:31 AM,51.29083,2.63028833,,DGPS,08:04:31,34595.48,15.82864,5.096,6.7,1.912,,,,,,,,,0001_20201005_080301
0,0,0,0.00158897,0.0100637,0.027531,0.0314494,0.0447293,0.091099,0.170467,0.198184,0.192883,0.193488,0.216194,0.24933,0.305716,0.349903,0.419215,0.445905,0.492665,0.541411,0.618131,0.750213,0.926557,1.01411,1.09327,1.17844,1.29827,1.51332,1.91253,2.61418,3.73363,5.01659,5.33008,3.49108,1.2486,16.90084337,1.03012,10.82,0.0768,1.07218,6.8,15.808,2020,10,5,8,4,32,10/5/2020,8:04:32 AM,10/05/2020 8:04:32,6.5535,163.556,35.7208,57,2416,2712,3197,0,24181,4,0,0.92773,3.00058,8:04:32 AM,51.29081333,2.63027667,,DGPS,08:04:32,34595.8,15.8282,2.96,6.748,2.458,,,,,,,,,0001_20201005_080301
0,0,0,0.00256598,0.0136982,0.0335651,0.0367224,0.0491121,0.0938498,0.166819,0.192619,0.191551,0.195821,0.221162,0.256538,0.316329,0.365206,0.442893,0.484747,0.553778,0.629495,0.758108,0.979337,1.29052,1.48313,1.6183,1.70315,1.77705,1.87114,2.01304,2.2303,2.56151,2.86922,2.72877,1.81041,0.76684,19.97054658,1.02718,10.82,0.0768,1.07148,6.82,15.808,2020,10,5,8,4,33,10/5/2020,8:04:33 AM,10/05/2020 8:04:33,6.5535,132.16,30.7073,57,2418,2708,3193,0,24185,4,0,0.925691,3.08861,8:04:33 AM,51.29079667,2.63026667,,DGPS,08:04:33,34593.08,15.82684,1.328,6.8,2.03,,,,,,,,,0001_20201005_080301
0,0,0,0.00208456,0.0124591,0.0326467,0.0361756,0.04896,0.0962994,0.175199,0.201422,0.199537,0.204197,0.234194,0.276942,0.345642,0.39794,0.475935,0.504116,0.560855,0.620704,0.738301,0.95392,1.27494,1.49387,1.67034,1.79088,1.87821,1.95788,2.077,2.26606,2.56977,2.80417,2.53983,1.55913,0.653019,20.52670936,1.03012,10.82,0.0768,1.07148,6.97,15.808,2020,10,5,8,4,34,10/5/2020,8:04:34 AM,10/05/2020 8:04:34,6.5535,125.322,30.6526,57,2432,2700,3221,0,24208,4,0,0.928339,2.97432,8:04:34 AM,51.29078,2.63025667,,DGPS,08:04:34,34593.16,15.82728,2.416,6.8,1.894,,,,,,,,,0001_20201005_080301
0,0,0,0.00323212,0.0164225,0.0385987,0.0411793,0.0535271,0.0997022,0.172931,0.19661,0.194535,0.198728,0.225628,0.264337,0.327187,0.378732,0.457613,0.498829,0.564814,0.636491,0.747734,0.931417,1.1726,1.29846,1.39027,1.47396,1.5934,1.78857,2.08557,2.4925,2.9803,3.32443,3.11502,2.0943,0.903853,19.34357792,1.03012,10.81,0.0768,1.07077,7.03,15.809,2020,10,5,8,4,35,10/5/2020,8:04:35 AM,10/05/2020 8:04:35,6.5535,129.686,31.7615,57,2427,2705,3218,0,24217,4,0,0.928949,2.94805,8:04:35 AM,51.29076167,2.63024833,,DGPS,08:04:35,34593,15.82828,1.856,6.84,1.176,,,,,,,,,0001_20201005_080301
0,0,0,0.00208387,0.0121494,0.0308943,0.0337359,0.045949,0.0906519,0.165317,0.190629,0.186851,0.188382,0.211082,0.24429,0.298683,0.342133,0.409645,0.438483,0.488927,0.54286,0.618922,0.739368,0.870267,0.888352,0.885159,0.895697,0.959436,1.12595,1.46519,2.07022,2.97994,3.89152,3.98151,2.6842,1.03052,14.44130737,1.03085,10.82,0.0768,1.07077,6.97,15.809,2020,10,5,8,4,36,10/5/2020,8:04:36 AM,10/05/2020 8:04:36,6.5535,142.354,29.009,57,2420,2706,3189,0,24208,4,0,0.929612,2.91953,8:04:36 AM,51.290745,2.63023833,,DGPS,08:04:36,34592.84,15.829,3.952,6.964,2.172,,,,,,,,,0001_20201005_080301
0,0,0,0.00250613,0.0134612,0.032564,0.0350994,0.0471708,0.0912563,0.164089,0.189853,0.188522,0.193178,0.221531,0.264427,0.334172,0.390241,0.466891,0.492499,0.543151,0.595462,0.699197,0.883833,1.12888,1.24886,1.33106,1.41224,1.5313,1.7388,2.10864,2.77566,3.90324,5.34782,6.09215,4.73206,2.20747,19.12454383,1.02645,10.81,0.0768,1.07288,6.91,15.809,2020,10,5,8,4,37,10/5/2020,8:04:37 AM,10/05/2020 8:04:37,6.5535,174.15,41.4073,57,2424,2701,3191,0,24199,4,0,0.923815,3.16973,8:04:37 AM,51.29072833,2.63023,,DGPS,08:04:37,34592.28,15.829,3.544,6.964,2.4,,,,,,,,,0001_20201005_080301
0,0,0,0.00217134,0.0128816,0.0338304,0.0380835,0.0528364,0.103879,0.186504,0.206127,0.191697,0.183979,0.198158,0.225401,0.279744,0.329519,0.407563,0.449821,0.514612,0.585883,0.696879,0.888203,1.15894,1.32977,1.48111,1.61562,1.74878,1.90368,2.11853,2.39681,2.70203,2.81426,2.39698,1.40991,0.563713,19.34101224,1.03159,10.82,0.0768,1.07359,7.02,15.809,2020,10,5,8,4,38,10/5/2020,8:04:38 AM,10/05/2020 8:04:38,6.5535,130.821,29.2279,57,2427,2706,3227,0,24216,4,0,0.927836,2.99602,8:04:38 AM,51.29071167,2.63022167,,DGPS,08:04:38,34592.84,15.829,4.696,6.9,2.24,,,,,,,,,0001_20201005_080301
0,0,0,0.00248625,0.0134854,0.0332471,0.0363907,0.0489239,0.0938926,0.167052,0.190651,0.186395,0.187374,0.208652,0.239789,0.295054,0.343189,0.420123,0.46299,0.530381,0.604727,0.721278,0.914882,1.16214,1.27556,1.34046,1.39682,1.50742,1.71708,2.03675,2.43603,2.84563,3.05305,2.6967,1.69805,0.707934,18.57322295,1.036,10.8,0.0768,1.07218,7.07,15.81,2020,10,5,8,4,39,10/5/2020,8:04:39 AM,10/05/2020 8:04:39,6.5535,124.548,29.5746,57,2430,2708,3212,0,24223,4,0,0.933024,2.77298,8:04:39 AM,51.29069333,2.63021333,,DGPS,08:04:39,34592.72,15.8286,5.992,6.928,1.65,,,,,,,,,0001_20201005_080301
0,0,0,0.00206705,0.0122722,0.0323588,0.0364691,0.0503982,0.0997602,0.182262,0.209516,0.205217,0.207156,0.234113,0.274561,0.346561,0.409194,0.506534,0.558756,0.643847,0.737922,0.900665,1.18339,1.5725,1.79826,1.9503,2.0482,2.14844,2.30015,2.52738,2.78492,3.06439,3.18587,2.78128,1.65663,0.648522,23.96316955,1.02645,10.81,0.0768,1.07077,7.08,15.81,2020,10,5,8,4,40,10/5/2020,8:04:40 AM,10/05/2020 8:04:40,6.5535,127.128,35.2999,57,2436,2698,3211,0,24225,4,0,0.925636,3.09096,8:04:40 AM,51.29067667,2.63020333,,DGPS,08:04:40,34593,15.82972,1.8,7,2.072,,,,,,,,,0001_20201005_080301
0,0,0,0.00231904,0.0129973,0.0320529,0.0344675,0.0464161,0.0909179,0.165197,0.192245,0.189423,0.190916,0.212048,0.243514,0.300113,0.349811,0.427803,0.468348,0.532011,0.601285,0.716715,0.911958,1.17907,1.33514,1.47619,1.62556,1.79603,1.97661,2.15991,2.35776,2.55266,2.6255,2.32467,1.55884,0.683094,19.62682774,1.03453,10.82,0.0768,1.07218,7.12,15.81,2020,10,5,8,4,41,10/5/2020,8:04:41 AM,10/05/2020 8:04:41,6.5535,129.905,29.3716,57,2446,2692,3227,0,24232,4,0,0.9317,2.82976,8:04:41 AM,51.29066167,2.63019333,,DGPS,08:04:41,34592.6,15.83,2.592,7,2.532,,,,,,,,,0001_20201005_080301
0,0,0,0.00243188,0.0135678,0.0331074,0.0351386,0.0464713,0.089706,0.160473,0.185006,0.181254,0.183739,0.206219,0.239365,0.294381,0.339981,0.408319,0.435999,0.478953,0.523556,0.592728,0.709211,0.865594,0.948092,1.0376,1.16038,1.35113,1.63855,2.02198,2.46112,2.86626,3.02364,2.6599,1.69857,0.71042,16.64405298,1.03673,10.81,0.0768,1.07218,7.1,15.81,2020,10,5,8,4,42,10/5/2020,8:04:42 AM,10/05/2020 8:04:42,6.5535,133.338,27.6029,57,2423,2709,3193,0,24228,4,0,0.933685,2.74462,8:04:42 AM,51.290645,2.63018333,,DGPS,08:04:42,34593,15.83,3.4,7.088,2.52,,,,,,,,,0001_20201005_080301
0,0,0,0.00214694,0.0127176,0.0329202,0.0362614,0.049301,0.097152,0.176476,0.200325,0.194083,0.193927,0.216583,0.250889,0.309477,0.35567,0.427252,0.457385,0.51727,0.582282,0.704174,0.925703,1.24671,1.45115,1.58907,1.64753,1.65741,1.66381,1.72176,1.85283,2.03451,2.08704,1.77734,1.06984,0.445526,18.57226514,1.02938,10.82,0.0768,1.07359,7.09,15.809,2020,10,5,8,4,43,10/5/2020,8:04:43 AM,10/05/2020 8:04:43,6.5535,107.375,25.9865,57,2430,2695,3216,0,24226,4,0,0.925853,3.08158,8:04:43 AM,51.29062833,2.63017333,,DGPS,08:04:43,34593,15.8294,4.048,7.052,2.34,,,,,,,,,0001_20201005_080301
0,0,0,0.00205,0.0122946,0.0318209,0.0347379,0.0470876,0.0938079,0.173106,0.201209,0.199368,0.202187,0.228202,0.26614,0.329997,0.382617,0.464241,0.50164,0.565833,0.635478,0.748931,0.938702,1.16545,1.23155,1.2308,1.20667,1.22133,1.33518,1.61076,2.10401,2.81848,3.42909,3.23186,1.97389,0.750248,17.1651999,1.03379,10.82,0.0768,1.07359,7.19,15.809,2020,10,5,8,4,44,10/5/2020,8:04:44 AM,10/05/2020 8:04:44,6.5535,126.883,29.3688,57,2448,2695,3247,0,24243,4,0,0.929818,2.91064,8:04:44 AM,51.29061167,2.63016333,,DGPS,08:04:44,34592.8,15.82808,4.336,7,2.962,,,,,,,,,0001_20201005_080301
0,0,0,0.00205387,0.0121692,0.0315865,0.0349563,0.0477035,0.0939314,0.170946,0.197922,0.194567,0.19658,0.219583,0.251143,0.299506,0.331338,0.379543,0.385636,0.409457,0.43271,0.47978,0.569627,0.693186,0.75337,0.807721,0.872328,0.975455,1.16834,1.51785,2.09562,2.88709,3.58312,3.56528,2.40416,0.952384,13.62460877,1.04188,10.82,0.0768,1.07148,7.21,15.809,2020,10,5,8,4,45,10/5/2020,8:04:45 AM,10/05/2020 8:04:45,6.5535,142.043,27.0166,56,2433,2697,3208,0,24245,4,0,0.938934,2.52042,8:04:45 AM,51.290595,2.630155,,DGPS,08:04:45,34593,15.8292,2.552,7.12,2.346,,,,,,,,,0001_20201005_080301
0,0,0,0.00259534,0.0142486,0.0355674,0.0391036,0.0524072,0.100752,0.179892,0.206256,0.204448,0.20879,0.237398,0.277807,0.344088,0.395932,0.474538,0.508701,0.574,0.644606,0.776019,1.01001,1.33959,1.54045,1.6723,1.74263,1.79825,1.87867,1.99949,2.13032,2.26591,2.28419,1.96656,1.21454,0.519017,20.38885914,1.02865,10.82,0.0768,1.07077,7.17,15.809,2020,10,5,8,4,46,10/5/2020,8:04:46 AM,10/05/2020 8:04:46,6.5535,109.847,28.6391,57,2433,2697,3183,0,24240,4,0,0.927624,3.00515,8:04:46 AM,51.29058,2.63015,,DGPS,08:04:46,34593.08,15.828,1.744,7.196,1.964,,,,,,,,,0001_20201005_080301
0,0,0,0.00154877,0.0100782,0.0279951,0.0320265,0.0456499,0.0936929,0.176256,0.204142,0.196616,0.194973,0.215545,0.24658,0.301046,0.342461,0.406755,0.42732,0.46836,0.510138,0.58365,0.717474,0.908828,1.02075,1.13439,1.2714,1.47208,1.81776,2.43537,3.50018,5.02725,6.39498,6.16114,3.77665,1.41052,18.76306537,1.02351,10.82,0.0768,1.07148,7.33,15.809,2020,10,5,8,4,47,10/5/2020,8:04:47 AM,10/05/2020 8:04:47,6.5535,182.041,41.5336,57,2457,2678,3278,0,24264,4,0,0.92238,3.23193,8:04:47 AM,51.290565,2.63014167,,DGPS,08:04:47,34594.12,15.82868,1.68,7.1,1.83,,,,,,,,,0001_20201005_080301
0,0,0,0.00223716,0.0126423,0.0314677,0.0340101,0.0458603,0.0902382,0.165235,0.193887,0.194516,0.198981,0.223564,0.255875,0.307024,0.344228,0.404815,0.428527,0.478752,0.532633,0.621198,0.766048,0.945604,1.0232,1.08952,1.17077,1.29011,1.4711,1.72141,2.04002,2.34421,2.44464,2.10614,1.31646,0.541894,16.08347276,1.03747,10.81,0.0768,1.07359,7.37,15.809,2020,10,5,8,4,48,10/5/2020,8:04:48 AM,10/05/2020 8:04:48,6.5535,125.375,24.8368,57,2450,2701,3220,0,24271,4,0,0.933123,2.76875,8:04:48 AM,51.29054667,2.63013,,DGPS,08:04:48,34594.32,15.82872,1.272,7.192,2.078,,,,,,,,,0001_20201005_080301
0,0,0,0.00271525,0.0144083,0.0346092,0.0370552,0.0486632,0.0919063,0.161212,0.183191,0.180679,0.183217,0.205034,0.235901,0.285233,0.324084,0.385218,0.412415,0.45923,0.509334,0.580383,0.69126,0.81402,0.84022,0.850571,0.87353,0.943197,1.09433,1.36489,1.8031,2.45293,3.18793,3.46307,2.52691,1.00512,13.60960645,1.03967,10.82,0.0768,1.07288,7.09,15.809,2020,10,5,8,4,49,10/5/2020,8:04:49 AM,10/05/2020 8:04:49,6.5535,149.972,26.2456,57,2415,2714,3162,0,24226,4,0,0.935718,2.65763,8:04:49 AM,51.29053167,2.63012333,,DGPS,08:04:49,34594,15.82872,3.552,7.376,2.308,,,,,,,,,0001_20201005_080301
0,0,0,0.00117211,0.00845633,0.0255801,0.0307649,0.0460008,0.0970845,0.184872,0.207383,0.19107,0.183391,0.199488,0.226432,0.273939,0.304517,0.352781,0.359753,0.392981,0.426225,0.494421,0.627084,0.829278,0.980123,1.16743,1.43176,1.83189,2.46001,3.42433,4.67449,5.9077,6.20004,4.81983,2.37023,0.808515,21.43270674,1.03306,10.81,0.0768,1.07218,7.25,15.81,2020,10,5,8,4,50,10/5/2020,8:04:50 AM,10/05/2020 8:04:50,6.5535,171.255,41.539,57,2431,2682,3224,0,24252,4,0,0.930377,2.88662,8:04:50 AM,51.29051833,2.63011833,,DGPS,08:04:50,34593.52,15.82844,3.872,7.12,2.168,,,,,,,,,0001_20201005_080301
0,0,0,0.00201302,0.0115725,0.0296231,0.0330452,0.0459734,0.0910381,0.166613,0.193025,0.188874,0.189253,0.210275,0.241254,0.291654,0.330481,0.387027,0.402383,0.425355,0.447352,0.4691,0.509213,0.571094,0.599801,0.658442,0.744625,0.84755,0.994016,1.25948,1.84203,3.03791,5.02912,6.53924,4.92849,1.7338,12.18216232,1.03453,10.81,0.0768,1.07218,7.7,15.81,2020,10,5,8,4,51,10/5/2020,8:04:51 AM,10/05/2020 8:04:51,6.5535,182.3,33.4507,57,2459,2691,3275,0,24322,4,0,0.9317,2.82976,8:04:51 AM,51.29050333,2.63011167,,DGPS,08:04:51,34593.84,15.82968,3.984,7.052,1.472,,,,,,,,,0001_20201005_080301
0,0,0,0.00263479,0.013642,0.0328433,0.0359138,0.0481511,0.0915968,0.162557,0.188693,0.18929,0.195041,0.222121,0.25897,0.317212,0.361193,0.426478,0.450544,0.495094,0.540858,0.622456,0.765891,0.964847,1.07909,1.18006,1.30179,1.50168,1.84411,2.37758,3.16068,4.19779,5.17174,5.19563,3.52613,1.36949,18.83101679,1.02718,10.8,0.0768,1.07288,7.57,15.81,2020,10,5,8,4,52,10/5/2020,8:04:52 AM,10/05/2020 8:04:52,6.5535,164.174,38.2918,57,2456,2699,3216,0,24301,4,0,0.924477,3.1411,8:04:52 AM,51.290485,2.6301,,DGPS,08:04:52,34593.44,15.82944,1.576,7.408,1.634,,,,,,,,,0001_20201005_080301
0,0,0,0.00236375,0.0129776,0.032436,0.0359503,0.0490059,0.0948315,0.170282,0.196736,0.194299,0.197799,0.223614,0.261423,0.325387,0.377697,0.455338,0.489146,0.544093,0.601789,0.706686,0.895739,1.18324,1.39163,1.58029,1.7381,1.88381,2.05414,2.2956,2.64933,3.15081,3.65136,3.64008,2.54348,1.07718,20.64373305,1.02865,10.82,0.0768,1.07359,7.51,15.81,2020,10,5,8,4,53,10/5/2020,8:04:53 AM,10/05/2020 8:04:53,6.5535,141.457,34.7066,57,2453,2693,3219,0,24292,4,0,0.925192,3.11014,8:04:53 AM,51.29047167,2.63009167,,DGPS,08:04:53,34594.4,15.829,3.568,7.584,2.05,,,,,,,,,0001_20201005_080301
0,0,0,0.00193495,0.0116827,0.0309937,0.0348459,0.0480333,0.095051,0.173513,0.200583,0.195369,0.195925,0.217313,0.247802,0.303726,0.352059,0.434688,0.48439,0.563816,0.653087,0.791237,1.0143,1.28489,1.38787,1.43266,1.46615,1.55269,1.75528,2.15319,2.79856,3.637,4.15073,3.59752,2.05573,0.814085,19.88163955,1.02645,10.8,0.0768,1.07077,7.51,15.809,2020,10,5,8,4,54,10/5/2020,8:04:54 AM,10/05/2020 8:04:54,6.5535,139.747,34.1367,57,2449,2699,3233,0,24293,4,0,0.925636,3.09096,8:04:54 AM,51.29046,2.63008833,,DGPS,08:04:54,34593.52,15.8288,3.28,7.46,2.576,,,,,,,,,0001_20201005_080301
0,0,0,0.00185768,0.0115922,0.0315262,0.0359469,0.0504307,0.10071,0.183869,0.207344,0.197582,0.195467,0.216078,0.246903,0.304275,0.353832,0.436829,0.482138,0.558651,0.643933,0.787503,1.03622,1.37433,1.56365,1.70932,1.85931,2.05961,2.30609,2.55109,2.74207,2.89322,2.86523,2.51564,1.72705,0.846597,22.24815768,1.03012,10.82,0.0768,1.07077,7.53,15.809,2020,10,5,8,4,55,10/5/2020,8:04:55 AM,10/05/2020 8:04:55,6.5535,119.718,33.0959,57,2460,2700,3229,0,24296,4,0,0.928949,2.94805,8:04:55 AM,51.290445,2.63008333,,DGPS,08:04:55,34594.12,15.82828,6.848,7.4,2.378,,,,,,,,,0001_20201005_080301
0,0,0,0.0028704,0.0150499,0.0358758,0.0380751,0.0492422,0.0926894,0.162649,0.186371,0.186089,0.191895,0.219267,0.257789,0.320423,0.371204,0.446324,0.480009,0.532193,0.586936,0.679639,0.841177,1.09831,1.31803,1.58434,1.88077,2.14447,2.28366,2.25981,2.11708,1.94704,1.73914,1.4076,0.884524,0.406432,20.3822378,1.03012,10.81,0.0768,1.07288,7.54,15.808,2020,10,5,8,4,56,10/5/2020,8:04:56 AM,10/05/2020 8:04:56,6.5535,105.268,26.767,57,2456,2683,3211,0,24297,4,0,0.927122,3.02682,8:04:56 AM,51.29042833,2.630075,,DGPS,08:04:56,34593.8,15.8268,3.864,7.448,1.802,,,,,,,,,0001_20201005_080301
0,0,0,0.00263245,0.0144359,0.0353077,0.0377959,0.0495032,0.0940265,0.165468,0.187094,0.182086,0.181922,0.200972,0.22953,0.278191,0.316532,0.378123,0.406959,0.462742,0.523904,0.635676,0.832966,1.09315,1.21768,1.26907,1.28461,1.31365,1.38477,1.5298,1.77899,2.17189,2.53567,2.45515,1.62141,0.723247,16.08758665,1.03085,10.81,0.0768,1.07218,7.74,15.808,2020,10,5,8,4,57,10/5/2020,8:04:57 AM,10/05/2020 8:04:57,6.5535,131.559,25.595,57,2462,2672,3253,0,24328,4,0,0.928392,2.97206,8:04:57 AM,51.29041333,2.63006833,,DGPS,08:04:57,34595.56,15.82788,2.672,7.412,1.874,,,,,,,,,0001_20201005_080301
0,0,0,0.00210144,0.0124586,0.032116,0.0350104,0.0470298,0.0929036,0.170132,0.197112,0.196077,0.200014,0.225459,0.25928,0.313001,0.349767,0.408951,0.427861,0.472625,0.519273,0.611667,0.782303,1.04977,1.2589,1.46573,1.64309,1.77574,1.89169,2.03305,2.26926,2.64405,3.08353,3.14454,2.25247,0.954172,18.74237184,1.02645,10.79,0.0768,1.07288,7.88,15.808,2020,10,5,8,4,58,10/5/2020,8:04:58 AM,10/05/2020 8:04:58,6.5535,135.05,30.8211,57,2470,2707,3262,0,24350,4,0,0.923815,3.16973,8:04:58 AM,51.2904,2.630065,,DGPS,08:04:58,34595,15.828,2.864,7.508,2.112,,,,,,,,,0001_20201005_080301
0,0,0,0.0014713,0.00963751,0.0266331,0.0300646,0.042333,0.086911,0.163779,0.189889,0.184782,0.185671,0.209202,0.245184,0.306775,0.359849,0.439218,0.473307,0.513662,0.554906,0.588424,0.639095,0.720206,0.776566,0.884944,1.01815,1.14727,1.31219,1.58899,2.03382,2.63975,3.20766,3.33017,2.49374,1.08841,14.73292951,1.03894,10.82,0.0768,1.07218,7.71,15.808,2020,10,5,8,4,59,10/5/2020,8:04:59 AM,10/05/2020 8:04:59,6.5535,148.618,27.4927,57,2455,2709,3219,0,24323,4,0,0.935671,2.65967,8:04:59 AM,51.29038833,2.63006,,DGPS,08:04:59,34595,15.828,3.472,7.756,1.534,,,,,,,,,0001_20201005_080301
0,0,0,0.00159502,0.0102853,0.028572,0.0329033,0.0471592,0.0969296,0.182851,0.211573,0.204916,0.202944,0.2242,0.256733,0.316797,0.367966,0.451935,0.495844,0.567425,0.646049,0.769784,0.982317,1.28029,1.46604,1.63554,1.79218,1.94977,2.12715,2.37459,2.67587,2.96944,2.92017,2.28195,1.2285,0.478115,21.40020842,1.02645,10.82,0.0768,1.07288,7.58,15.808,2020,10,5,8,5,0,10/5/2020,8:05:00 AM,10/05/2020 8:05:00,6.5535,125.177,31.2784,57,2450,2698,3206,0,24303,4,0,0.923815,3.16973,8:05:00 AM,51.29037167,2.63005167,,DGPS,08:05:00,34595.48,15.82736,3.208,7.744,2.332,,,,,,,,,0001_20201005_080301
0,0,0,0.00282031,0.0148408,0.0352491,0.0372828,0.0482492,0.0902514,0.156453,0.175603,0.170483,0.170956,0.190093,0.21946,0.269983,0.313313,0.37983,0.413649,0.463481,0.516829,0.595629,0.72481,0.905802,1.02312,1.15133,1.28767,1.4272,1.57949,1.78584,2.10128,2.53407,2.8815,2.69806,1.81663,0.842802,16.25099761,1.03379,10.82,0.0768,1.07218,7.78,15.808,2020,10,5,8,5,1,10/5/2020,8:05:01 AM,10/05/2020 8:05:01,6.5535,133.363,27.0241,57,2467,2671,3260,0,24334,4,0,0.931039,2.85818,8:05:01 AM,51.29036,2.63004167,,DGPS,08:05:01,34593.4,15.82608,3.496,7.528,2.562,,,,,,,,,0001_20201005_080301
0,0,0,0.00196436,0.0120272,0.0316908,0.0349212,0.0473854,0.093697,0.170416,0.193844,0.186175,0.185381,0.206678,0.238971,0.29503,0.340683,0.412434,0.444239,0.501491,0.563387,0.669623,0.851767,1.09005,1.20865,1.30348,1.41598,1.58994,1.84715,2.18105,2.50513,2.70049,2.53724,1.91403,1.03267,0.385292,18.62323496,1.03232,10.82,0.0768,1.07077,7.88,15.808,2020,10,5,8,5,2,10/5/2020,8:05:02 AM,10/05/2020 8:05:02,6.5535,123.236,27.193,57,2468,2685,3257,0,24350,4,0,0.930937,2.86255,8:05:02 AM,51.29034667,2.63003333,,DGPS,08:05:02,34592.96,15.826,2.808,7.544,1.814,,,,,,,,,0001_20201005_080301
0,0,0,0.00218604,0.0127619,0.0327482,0.0358585,0.0481871,0.0946625,0.172862,0.201277,0.201475,0.206106,0.234406,0.272637,0.33222,0.374698,0.442471,0.469693,0.52407,0.581653,0.673653,0.824168,1.0243,1.13802,1.26834,1.4337,1.64252,1.93362,2.34522,2.93515,3.65803,4.24187,4.15704,2.92153,1.2944,19.45866324,1.02277,10.82,0.0768,1.07077,7.75,15.808,2020,10,5,8,5,3,10/5/2020,8:05:03 AM,10/05/2020 8:05:03,6.5535,142.634,35.7315,56,2449,2700,3210,0,24330,4,0,0.922323,3.23438,8:05:03 AM,51.29033167,2.63002833,,DGPS,08:05:03,34592.88,15.826,2.72,7.768,1.758,,,,,,,,,0001_20201005_080301
0,0,0,0.0019864,0.0120408,0.0317917,0.0354269,0.0486213,0.0963525,0.175673,0.199714,0.192782,0.191643,0.212697,0.245126,0.305108,0.357744,0.442706,0.489655,0.565,0.648327,0.78876,1.03121,1.38308,1.62522,1.85525,2.07738,2.2864,2.46365,2.61495,2.74336,2.84781,2.75111,2.23483,1.31916,0.5391,23.1216546,1.02571,10.82,0.0768,1.07288,7.71,15.807,2020,10,5,8,5,4,10/5/2020,8:05:04 AM,10/05/2020 8:05:04,6.5535,125.28,32.8137,57,2448,2685,3214,0,24323,4,0,0.923154,3.19837,8:05:04 AM,51.29031833,2.63002333,,DGPS,08:05:04,34592.72,15.826,3.904,7.736,1.934,,,,,,,,,0001_20201005_080301
0,0,0,0.00201386,0.0120541,0.0312511,0.0343006,0.0466299,0.0919326,0.166669,0.188965,0.181803,0.180466,0.199229,0.227725,0.279289,0.322088,0.392544,0.428634,0.495083,0.568628,0.698461,0.923539,1.20395,1.3103,1.3482,1.40329,1.56971,1.9237,2.54475,3.49017,4.59689,5.07903,3.9643,1.92383,0.625011,20.26537516,1.02792,10.81,0.0768,1.07218,8.08,15.807,2020,10,5,8,5,5,10/5/2020,8:05:05 AM,10/05/2020 8:05:05,6.5535,140.899,36.4544,57,2475,2679,3275,0,24382,4,0,0.925745,3.08626,8:05:05 AM,51.29030333,2.63001833,,DGPS,08:05:05,34594,15.826,4.096,7.6,2.346,,,,,,,,,0001_20201005_080301
0,0,0,0.00213578,0.0124222,0.0319461,0.0352704,0.0478597,0.0939562,0.171075,0.198678,0.197653,0.201655,0.227362,0.261362,0.31791,0.360956,0.432348,0.465529,0.529383,0.598663,0.727607,0.958998,1.28955,1.49253,1.6321,1.73098,1.844,2.02439,2.32368,2.81073,3.49926,4.09061,3.91899,2.58096,1.03138,21.02072938,1.02645,10.81,0.0768,1.07218,8.02,15.808,2020,10,5,8,5,6,10/5/2020,8:05:06 AM,10/05/2020 8:05:06,6.5535,146.113,36.1419,57,2479,2696,3239,0,24372,4,0,0.924421,3.14349,8:05:06 AM,51.29029,2.63001,,DGPS,08:05:06,34594.12,15.82708,3.216,7.776,2.42,,,,,,,,,0001_20201005_080301
0,0,0,0.00231982,0.0136836,0.0351313,0.038199,0.0510424,0.0999959,0.180881,0.205798,0.199203,0.199076,0.22139,0.254805,0.315657,0.367484,0.451802,0.498502,0.571684,0.651764,0.788352,1.03246,1.4135,1.7072,1.96155,2.13253,2.24285,2.3722,2.6314,3.10334,3.77026,4.17261,3.56588,1.99352,0.767493,23.74380002,1.0213,10.82,0.0768,1.07359,7.89,15.808,2020,10,5,8,5,7,10/5/2020,8:05:07 AM,10/05/2020 8:05:07,6.5535,134.805,38.0135,57,2439,2696,3182,0,24352,4,0,0.918584,3.39688,8:05:07 AM,51.29027667,2.630005,,DGPS,08:05:07,34595.36,15.82764,2.688,7.992,1.934,,,,,,,,,0001_20201005_080301
0,0,0,0.0018939,0.0107993,0.0281306,0.0321939,0.0456394,0.0919667,0.173074,0.208095,0.213539,0.221612,0.252568,0.290701,0.356021,0.406409,0.491722,0.538775,0.628869,0.729607,0.923514,1.27673,1.81169,2.20321,2.50008,2.68479,2.79789,2.90082,3.01345,3.11233,3.13657,2.92518,2.32362,1.36345,0.52953,27.9461198,1.01689,10.82,0.0768,1.07077,8.33,15.808,2020,10,5,8,5,8,10/5/2020,8:05:08 AM,10/05/2020 8:05:08,6.5535,119.954,38.2245,57,2412,2670,3179,0,24421,4,0,0.917023,3.46493,8:05:08 AM,51.29026667,2.63,,DGPS,08:05:08,34595.85714,15.82766667,3.495238095,7.861904762,1.821428571,,,,,,,,,0001_20201005_080301
0,0,0,0.0033364,0.016394,0.0378413,0.040326,0.0524318,0.0973368,0.168757,0.191392,0.190059,0.193026,0.217876,0.255851,0.318557,0.370473,0.442172,0.469868,0.511377,0.553785,0.630096,0.771062,0.992527,1.15895,1.30718,1.41338,1.48924,1.57564,1.74013,2.0331,2.49365,2.93943,2.88158,1.93848,0.842651,17.2421643,1.03673,10.81,0.0768,1.07218,8.92,15.808,2020,10,5,8,5,9,10/5/2020,8:05:09 AM,10/05/2020 8:05:09,6.5535,126.047,28.338,57,2395,2661,3186,0,24512,4,0,0.933685,2.74462,8:05:09 AM,51.29025167,2.62999,,DGPS,08:05:09,34595.28,15.82644,4.664,7.888,2.118,,,,,,,,,0001_20201005_080301
0,0,0,0.00217275,0.0125764,0.0322444,0.0354746,0.0478052,0.0934457,0.169182,0.194822,0.191707,0.193649,0.216333,0.248311,0.304519,0.350374,0.425413,0.464738,0.534326,0.61104,0.742905,0.967715,1.27108,1.44305,1.58486,1.74753,1.99011,2.33093,2.73081,3.06418,3.19734,2.95668,2.2605,1.27888,0.522355,22.00130305,1.03159,10.82,0.0768,1.07288,9.6,15.808,2020,10,5,8,5,10,10/5/2020,8:05:10 AM,10/05/2020 8:05:10,6.5535,118.69,32.2171,57,2437,2707,3274,0,24619,4,0,0.928444,2.9698,8:05:10 AM,51.29023833,2.62997833,,DGPS,08:05:10,34593.4,15.826,2.28,8.408,2.5,,,,,,,,,0001_20201005_080301
0,0,0,0.00239651,0.0138085,0.0351371,0.0382793,0.05092,0.0988494,0.177603,0.201412,0.197641,0.199406,0.224702,0.261237,0.321935,0.368425,0.440142,0.469179,0.526058,0.586659,0.704788,0.925464,1.26212,1.5063,1.70804,1.86224,1.99894,2.15475,2.35138,2.54093,2.66418,2.57918,2.16411,1.37042,0.613014,21.22874181,1.02792,10.81,0.0768,1.07288,9.77,15.808,2020,10,5,8,5,11,10/5/2020,8:05:11 AM,10/05/2020 8:05:11,6.5535,124.306,30.6196,57,2464,2705,3229,0,24645,4,0,0.925138,3.1125,8:05:11 AM,51.290225,2.62997333,,DGPS,08:05:11,34596.76,15.82688,5.144,9.104,2.428,,,,,,,,,0001_20201005_080301
0,0,0,0.00368385,0.0175919,0.0396474,0.0415528,0.0529272,0.0969653,0.166383,0.188127,0.188372,0.192235,0.216031,0.24921,0.305661,0.354015,0.430272,0.474936,0.541844,0.615071,0.731885,0.932463,1.23103,1.45094,1.63348,1.75661,1.85671,2.00219,2.23493,2.50345,2.69841,2.64289,2.15676,1.31191,0.566751,20.50821345,1.036,10.82,0.0768,1.07148,9.8,15.808,2020,10,5,8,5,12,10/5/2020,8:05:12 AM,10/05/2020 8:05:12,6.5535,124.37,29.8849,57,2466,2696,3245,0,24650,4,0,0.933636,2.74673,8:05:12 AM,51.29021333,2.62997167,,DGPS,08:05:12,34596.88,15.82668,6.352,9.596,2.078,,,,,,,,,0001_20201005_080301
0,0,0,0.00208782,0.0129473,0.0339633,0.036633,0.0483823,0.0951482,0.172317,0.193653,0.187713,0.187274,0.208876,0.240536,0.291547,0.328618,0.387695,0.407791,0.455102,0.505649,0.59065,0.729617,0.884697,0.923777,0.953077,1.01234,1.12996,1.35307,1.74191,2.33912,3.08347,3.60999,3.43663,2.24212,0.878332,15.45415092,1.03747,10.81,0.0768,1.07359,9.93,15.807,2020,10,5,8,5,13,10/5/2020,8:05:13 AM,10/05/2020 8:05:13,6.5535,150.233,28.7047,57,2477,2693,3264,0,24671,4,0,0.933123,2.76875,8:05:13 AM,51.2902,2.62996833,,DGPS,08:05:13,34594,15.826,2.256,9.644,2.04,,,,,,,,,0001_20201005_080301
0,0,0,0.00185286,0.0114506,0.0301827,0.0332473,0.0458416,0.0925864,0.172648,0.200992,0.19791,0.200992,0.227914,0.266397,0.330076,0.380433,0.459958,0.495687,0.563292,0.6369,0.758416,0.959843,1.21386,1.32971,1.42098,1.52822,1.7042,1.99556,2.42475,2.94055,3.35398,3.3024,2.56585,1.41154,0.502586,20.62444946,1.02571,10.81,0.0768,1.07077,9.86,15.807,2020,10,5,8,5,14,10/5/2020,8:05:14 AM,10/05/2020 8:05:14,6.5535,121.239,31.7608,57,2480,2695,3252,0,24660,4,0,0.924974,3.1196,8:05:14 AM,51.290185,2.62995667,,DGPS,08:05:14,34592.56,15.826,0.624,9.752,2.022,,,,,,,,,0001_20201005_080301
0,0,0,0.00265161,0.0141862,0.0341262,0.0364878,0.0481938,0.0918083,0.162403,0.18521,0.182149,0.183872,0.204211,0.232527,0.280499,0.319282,0.381097,0.408203,0.449918,0.493164,0.565144,0.695557,0.905315,1.07674,1.25541,1.41184,1.54273,1.69207,1.92413,2.33206,3.01789,3.86617,4.19967,3.18881,1.49125,17.11098491,1.02938,10.81,0.0768,1.07148,9.7,15.807,2020,10,5,8,5,15,10/5/2020,8:05:15 AM,10/05/2020 8:05:15,6.5535,151.359,32.8748,57,2473,2694,3215,0,24635,4,0,0.927677,3.00287,8:05:15 AM,51.29017333,2.62994667,,DGPS,08:05:15,34592,15.826,0.971428571,9.8,1.430952381,,,,,,,,,0001_20201005_080301
0,0,0,0.00137543,0.00981089,0.0289574,0.0335907,0.0479325,0.0995442,0.187586,0.209256,0.195456,0.188279,0.204844,0.231257,0.278863,0.313114,0.373468,0.398667,0.453571,0.513311,0.609938,0.779665,1.01424,1.15491,1.29786,1.47257,1.70165,2.01563,2.457,3.01161,3.6509,3.98866,3.51791,2.06595,0.795574,19.28395612,1.02718,10.82,0.0768,1.07288,9.71,15.807,2020,10,5,8,5,16,10/5/2020,8:05:16 AM,10/05/2020 8:05:16,6.5535,150.758,33.3029,57,2455,2681,3214,0,24636,4,0,0.924477,3.1411,8:05:16 AM,51.29016333,2.62994,,DGPS,08:05:16,34592.76,15.82544,2.248,9.664,1.766,,,,,,,,,0001_20201005_080301
0,0,0,0.00275889,0.0150754,0.0365428,0.038624,0.049931,0.0942666,0.164151,0.180214,0.172123,0.168612,0.183362,0.206318,0.244968,0.272858,0.319202,0.33761,0.378563,0.422583,0.496699,0.626056,0.795237,0.879508,0.934969,0.980491,1.05292,1.20246,1.4984,2.01344,2.80794,3.62462,3.76721,2.59153,1.14506,13.76794269,1.04114,10.81,0.0768,1.07288,10.1,15.807,2020,10,5,8,5,17,10/5/2020,8:05:17 AM,10/05/2020 8:05:17,6.5535,150.938,27.7043,57,2457,2683,3257,0,24697,3,0,0.937041,2.60113,8:05:17 AM,51.29015167,2.62993667,,DGPS,08:05:17,34592.64,15.826,3.76,9.516,2.186,,,,,,,,,0001_20201005_080301
0,0,0,0,0.00538409,0.0181642,0.02394,0.0404833,0.0945106,0.201076,0.250774,0.248012,0.250791,0.285456,0.334092,0.424413,0.498485,0.61482,0.661712,0.752675,0.85095,1.04139,1.39939,1.94518,2.30848,2.58411,2.73831,2.78944,2.84014,3.00209,3.32391,3.70376,3.78138,3.13933,1.78291,0.613298,29.52817819,1.01395,10.82,0.0768,1.07218,10.35,15.807,2020,10,5,8,5,18,10/5/2020,8:05:18 AM,10/05/2020 8:05:18,6.5535,124.854,42.5489,57,2494,2709,3295,0,24737,4,0,0.913172,3.63323,8:05:18 AM,51.29013833,2.62993,,DGPS,08:05:18,34593,15.82648,1.648,9.744,2.128,,,,,,,,,0001_20201005_080301
0,0,0,0.00225154,0.0131113,0.0332328,0.0358681,0.0477735,0.0934482,0.169237,0.194819,0.192251,0.194552,0.217382,0.249597,0.304134,0.349024,0.421727,0.457285,0.516449,0.581147,0.680615,0.840104,1.02713,1.08364,1.10345,1.10761,1.1171,1.16009,1.28189,1.52973,1.90645,2.23066,2.11316,1.3853,0.594771,15.00464844,1.03967,10.82,0.0768,1.07218,9.99,15.807,2020,10,5,8,5,19,10/5/2020,8:05:19 AM,10/05/2020 8:05:19,6.5535,115.037,23.235,57,2481,2711,3228,0,24680,4,0,0.936332,2.63139,8:05:19 AM,51.29012333,2.62992167,,DGPS,08:05:19,34593.04,15.82588,3.088,10.136,1.786,,,,,,,,,0001_20201005_080301
0,0,0,0.0018532,0.011349,0.030112,0.0335583,0.0462632,0.0927322,0.171698,0.199169,0.195252,0.195066,0.214929,0.243607,0.295756,0.338298,0.40788,0.439253,0.495103,0.555173,0.662248,0.851386,1.10932,1.25141,1.35851,1.45349,1.57741,1.78723,2.15367,2.69137,3.31652,3.61917,3.11579,1.80568,0.660562,18.8630959,1.02718,10.81,0.0768,1.07077,9.74,15.805,2020,10,5,8,5,20,10/5/2020,8:05:20 AM,10/05/2020 8:05:20,6.5535,135.901,31.3808,57,2461,2709,3203,0,24641,4,0,0.926299,3.06234,8:05:20 AM,51.29011333,2.629915,,DGPS,08:05:20,34593.16,15.82584,4,10.128,1.526,,,,,,,,,0001_20201005_080301
0,0,0,0.00179765,0.0117018,0.032139,0.0357963,0.0485943,0.0962036,0.173004,0.187863,0.171982,0.162088,0.171057,0.190547,0.231081,0.266216,0.322536,0.347389,0.389665,0.435185,0.509663,0.642582,0.817699,0.898957,0.952043,1.00242,1.08712,1.25282,1.54385,1.9639,2.52431,2.97952,2.77086,1.60111,0.635441,13.94589965,1.04188,10.82,0.0768,1.07077,10.01,15.805,2020,10,5,8,5,21,10/5/2020,8:05:21 AM,10/05/2020 8:05:21,6.5535,138.84,24.4571,57,2462,2677,3242,0,24683,3,0,0.939551,2.49415,8:05:21 AM,51.29010333,2.62991,,DGPS,08:05:21,34593.2,15.82444,0.976,9.756,1.608,,,,,,,,,0001_20201005_080301
0,0,0,0,0.00755126,0.0244075,0.0302936,0.0466494,0.102201,0.202292,0.232402,0.218897,0.214801,0.243478,0.294222,0.388967,0.472952,0.592398,0.63926,0.71924,0.804772,0.958127,1.23696,1.62703,1.83796,1.9887,2.0799,2.14089,2.22769,2.41508,2.72082,3.16758,3.46185,3.10996,1.8597,0.697633,24.46794076,1.02351,10.82,0.0768,1.07288,10.43,15.806,2020,10,5,8,5,22,10/5/2020,8:05:22 AM,10/05/2020 8:05:22,6.5535,126.568,36.7647,57,2480,2683,3272,0,24748,4,0,0.92117,3.28442,8:05:22 AM,51.29009,2.62990333,,DGPS,08:05:22,34592.80952,15.82509524,2.685714286,9.661904762,2.257142857,,,,,,,,,0001_20201005_080301
0,0,0,0.00407332,0.0180335,0.0394994,0.0421436,0.0548502,0.100008,0.171864,0.198389,0.20233,0.207492,0.231182,0.261529,0.309312,0.343823,0.398209,0.421651,0.465676,0.51194,0.589206,0.725033,0.909572,1.00598,1.05185,1.07576,1.14517,1.34811,1.76325,2.42763,3.26643,3.99506,4.08847,3.00267,1.30801,16.02356602,1.03526,10.81,0.0768,1.07218,10.54,15.806,2020,10,5,8,5,23,10/5/2020,8:05:23 AM,10/05/2020 8:05:23,6.5535,146.608,31.6842,56,2503,2702,3293,0,24766,4,0,0.932362,2.80136,8:05:23 AM,51.29007667,2.62989167,,DGPS,08:05:23,34592.92,15.82584,4.568,10.024,2.52,,,,,,,,,0001_20201005_080301
0,0,0,0.00166734,0.0108303,0.0292882,0.0321589,0.044076,0.0901085,0.170121,0.198439,0.196437,0.198445,0.222681,0.257423,0.314129,0.357061,0.421146,0.437687,0.468042,0.49812,0.546643,0.638613,0.765781,0.815274,0.850181,0.890474,0.974316,1.16323,1.5389,2.19469,3.12534,3.94931,3.84612,2.43443,0.94012,14.32596224,1.0382,10.82,0.0768,1.07288,10.28,15.805,2020,10,5,8,5,24,10/5/2020,8:05:24 AM,10/05/2020 8:05:24,6.5535,141.704,28.6213,57,2484,2701,3222,0,24725,4,0,0.934396,2.71421,,51.29006179,2.629876599,,RTK,08:05:24,34594.6,15.82472,4.832,10.356,2.182,,,,,,,,,0001_20201005_080301
0,0,0,0.00230654,0.0133443,0.0342962,0.0379461,0.0514271,0.100019,0.17894,0.199991,0.191364,0.188379,0.207616,0.237976,0.291939,0.335876,0.408566,0.449323,0.525857,0.612593,0.755055,0.994619,1.29253,1.41956,1.46673,1.46885,1.49365,1.61234,1.91053,2.44697,3.23639,3.87037,3.52143,1.98106,0.705034,18.92859324,1.02792,10.82,0.0768,1.07288,10.2,15.805,2020,10,5,8,5,25,10/5/2020,8:05:25 AM,10/05/2020 8:05:25,6.5535,135.24,32.2429,57,2453,2693,3198,0,24712,4,0,0.925138,3.1125,,51.29004691,2.629861529,,RTK,08:05:25,34595.24,15.8248,3.76,10.336,2.518,,,,,,,,,0001_20201005_080301
0,0,0,0.00369702,0.0181589,0.0406566,0.0411431,0.050183,0.090108,0.150674,0.165952,0.160623,0.160836,0.177816,0.203183,0.245586,0.279519,0.331027,0.352032,0.386805,0.422724,0.488362,0.607689,0.790828,0.929952,1.07361,1.21778,1.35773,1.50712,1.74015,2.15705,2.84291,3.60162,3.80053,2.7117,1.16499,15.15099462,1.03673,10.81,0.0768,1.07218,10.62,15.806,2020,10,5,8,5,26,10/5/2020,8:05:26 AM,10/05/2020 8:05:26,6.5535,151.355,29.2727,57,2461,2674,3261,0,24778,4,0,0.933685,2.74462,,51.29003203,2.629846458,,RTK,08:05:26,34594.96,15.825,2.232,10.092,2.084,,,,,,,,,0001_20201005_080301
0,0,0,0.00195828,0.011552,0.0302663,0.0340044,0.0469382,0.092643,0.168629,0.192896,0.187196,0.185186,0.202175,0.22789,0.273301,0.308656,0.363125,0.380672,0.411655,0.443038,0.489403,0.569835,0.686097,0.760288,0.861407,1.00008,1.18377,1.43721,1.7982,2.2982,2.87838,3.20008,2.8817,1.83139,0.747072,14.64627118,1.03453,10.82,0.0768,1.07218,10.96,15.806,2020,10,5,8,5,27,10/5/2020,8:05:27 AM,10/05/2020 8:05:27,6.5535,146.03,26.1849,56,2505,2705,3296,0,24831,4,0,0.9317,2.82976,,51.29001715,2.629831388,,RTK,08:05:27,34594.76,15.825,2.664,10.2,2.376,,,,,,,,,0001_20201005_080301
0,0,0,0.00240536,0.0132754,0.0324317,0.034735,0.0461504,0.0887808,0.15835,0.181742,0.177012,0.176595,0.193171,0.217587,0.261199,0.297759,0.358634,0.390048,0.439115,0.491935,0.573276,0.708459,0.885898,0.972879,1.04831,1.14477,1.30226,1.55294,1.92934,2.48822,3.15201,3.59152,3.24702,2.09557,0.842414,16.16727766,1.03894,10.81,0.0768,1.07077,10.69,15.805,2020,10,5,8,5,28,10/5/2020,8:05:28 AM,10/05/2020 8:05:28,6.5535,151.759,29.0958,56,2500,2696,3246,0,24789,4,0,0.9369,2.60714,,51.29000227,2.629816317,,RTK,08:05:28,34594.56,15.825,5.584,10.656,1.52,,,,,,,,,0001_20201005_080301
0,0,0,0.0026224,0.01464,0.0358596,0.0378649,0.0490066,0.0936976,0.166203,0.188597,0.184598,0.185767,0.206085,0.233277,0.281799,0.32185,0.393809,0.439094,0.523045,0.620001,0.79344,1.09418,1.49619,1.71922,1.84356,1.90394,1.95219,2.02572,2.15849,2.33014,2.49218,2.38686,1.87558,1.06379,0.451945,21.2948861,1.03012,10.81,0.0768,1.07077,10.52,15.804,2020,10,5,8,5,29,10/5/2020,8:05:29 AM,10/05/2020 8:05:29,6.5535,114.903,29.5653,57,2472,2685,3208,0,24763,4,0,0.928949,2.94805,,51.28998739,2.629801247,,RTK,08:05:29,34593.68,15.8226,2.496,10.74,2.84,,,,,,,,,0001_20201005_080301
0,0,0,0.00132299,0.00880399,0.025209,0.0297484,0.0439951,0.0922408,0.176669,0.204529,0.194789,0.189287,0.203864,0.226933,0.273356,0.310481,0.374525,0.405194,0.466251,0.533418,0.641486,0.823467,1.04466,1.12286,1.1531,1.17766,1.26573,1.51277,2.07646,3.21886,5.24923,7.65382,7.83599,4.43249,1.47059,17.79766928,1.02571,10.82,0.0768,1.07359,10.82,15.804,2020,10,5,8,5,30,10/5/2020,8:05:30 AM,10/05/2020 8:05:30,6.5535,178.667,44.4398,57,2462,2680,3248,0,24810,3,0,0.922549,3.22459,,51.28997251,2.629786176,,RTK,08:05:30,34594.44,15.822,1.064,10.484,2.004,,,,,,,,,0001_20201005_080301
0,0,0,0.00233139,0.0135347,0.0342252,0.0368509,0.0486604,0.0939105,0.166838,0.186155,0.177982,0.175488,0.19221,0.218445,0.266536,0.307608,0.374981,0.410822,0.467174,0.528484,0.622077,0.779687,0.998663,1.13043,1.25183,1.37918,1.54173,1.77399,2.10824,2.59332,3.2793,3.96882,3.93737,2.54042,0.965563,17.88138309,1.03673,10.81,0.0768,1.07218,11.19,15.803,2020,10,5,8,5,31,10/5/2020,8:05:31 AM,10/05/2020 8:05:31,6.5535,141.355,32.5729,57,2485,2692,3294,0,24867,4,0,0.933685,2.74462,,51.28995763,2.629771106,,RTK,08:05:31,34593.96,15.822,1.664,10.452,2.074,,,,,,,,,0001_20201005_080301
0,0,0,0.00249969,0.0137429,0.0335098,0.0356948,0.0468337,0.0896068,0.158963,0.181216,0.177,0.177854,0.197232,0.225943,0.274401,0.31171,0.36981,0.393077,0.441064,0.492678,0.594244,0.778899,1.03884,1.18869,1.26424,1.27622,1.27439,1.32368,1.48329,1.77399,2.16157,2.40336,2.18274,1.37782,0.570892,15.61931869,1.03967,10.8,0.0768,1.07288,11.1,15.804,2020,10,5,8,5,32,10/5/2020,8:05:32 AM,10/05/2020 8:05:32,6.5535,126.801,24.3157,57,2503,2708,3269,0,24854,4,0,0.935718,2.65763,,51.28994275,2.629756035,,RTK,08:05:32,34593.92,15.82192,1.08,10.796,1.278,,,,,,,,,0001_20201005_080301
0,0,0,0.00251924,0.0140263,0.0349605,0.0381004,0.0508228,0.0972952,0.172189,0.194632,0.189176,0.189305,0.210554,0.242297,0.297605,0.343067,0.415892,0.453858,0.522253,0.598231,0.734032,0.972538,1.30933,1.52253,1.6571,1.69383,1.66721,1.64405,1.68395,1.79938,1.97753,2.0496,1.78076,1.10272,0.468405,18.75073344,1.036,10.82,0.0768,1.07359,10.89,15.803,2020,10,5,8,5,33,10/5/2020,8:05:33 AM,10/05/2020 8:05:33,6.5535,106.749,26.1298,57,2477,2698,3215,0,24821,4,0,0.931801,2.82544,,51.28992787,2.629740965,,RTK,08:05:33,34593.72,15.82152,2.344,11.024,2.27,,,,,,,,,0001_20201005_080301
0,0,0,0.00276198,0.0161039,0.0410825,0.0437226,0.0548694,0.102393,0.175279,0.186811,0.174118,0.168709,0.183844,0.209061,0.253316,0.285681,0.340274,0.365742,0.423767,0.488701,0.610362,0.826007,1.10068,1.21912,1.24596,1.23941,1.2933,1.47485,1.85119,2.44599,3.26007,3.8897,3.63146,2.18992,0.850818,16.82310538,1.0382,10.78,0.0768,1.07359,11.11,15.802,2020,10,5,8,5,34,10/5/2020,8:05:34 AM,10/05/2020 8:05:34,6.5535,152.073,30.6451,56,2470,2676,3242,0,24855,4,0,0.933783,2.74043,,51.28991299,2.629725894,,RTK,08:05:34,34593.2,15.82088,4.424,10.88,2.606,,,,,,,,,0001_20201005_080301
0,0,0,0.00229266,0.0135054,0.0353961,0.0395605,0.0535718,0.104073,0.185848,0.207076,0.19813,0.194882,0.213156,0.240181,0.288593,0.32491,0.387133,0.415719,0.475007,0.539903,0.658486,0.87179,1.17345,1.36085,1.49669,1.59704,1.7241,1.95216,2.34012,2.87513,3.49002,3.91707,3.71574,2.41938,0.972987,19.96875346,1.03085,10.81,0.0768,1.07288,11.51,15.802,2020,10,5,8,5,35,10/5/2020,8:05:35 AM,10/05/2020 8:05:35,6.5535,148.414,34.4839,57,2494,2683,3297,0,24917,4,0,0.927783,2.9983,,51.28989811,2.629710824,,RTK,08:05:35,34594.56,15.82136,5.032,10.816,2.33,,,,,,,,,0001_20201005_080301
0,0,0,0.00265441,0.0142312,0.0348361,0.0378786,0.0503956,0.0966349,0.172317,0.196686,0.194129,0.194924,0.21657,0.248312,0.305954,0.355466,0.43442,0.478613,0.552828,0.635136,0.77655,1.01899,1.35725,1.57024,1.72324,1.81305,1.8803,2.00029,2.25087,2.68722,3.34732,3.94092,3.77237,2.36616,0.911417,21.29998581,1.02351,10.79,0.0768,1.07288,11.49,15.803,2020,10,5,8,5,36,10/5/2020,8:05:36 AM,10/05/2020 8:05:36,6.5535,139.034,35.6382,57,2509,2699,3261,0,24915,4,0,0.92117,3.28442,,51.28988323,2.629695753,,RTK,08:05:36,34596.4,15.822,5.496,11.132,1.99,,,,,,,,,0001_20201005_080301
0,0,0,0.00252869,0.013986,0.0345288,0.0372026,0.049031,0.0934853,0.164657,0.184648,0.178428,0.177786,0.197261,0.22834,0.2838,0.333259,0.408827,0.447348,0.505684,0.569045,0.666035,0.822379,1.0063,1.06268,1.08613,1.11611,1.19097,1.3497,1.63495,2.1195,2.86332,3.63282,3.6488,2.36892,0.976549,15.96459939,1.03232,10.81,0.0768,1.07218,11.27,15.803,2020,10,5,8,5,37,10/5/2020,8:05:37 AM,10/05/2020 8:05:37,6.5535,147.384,29.455,57,2482,2691,3224,0,24880,4,0,0.929715,2.91508,,51.28986835,2.629680683,,RTK,08:05:37,34595.52,15.822,2.616,11.384,1.862,,,,,,,,,0001_20201005_080301
0,0,0,0.00151314,0.0102965,0.0296682,0.0344087,0.0492482,0.102397,0.194919,0.223722,0.214691,0.210553,0.231512,0.263969,0.324135,0.371423,0.446852,0.476323,0.536988,0.60206,0.71876,0.926382,1.23234,1.44816,1.68171,1.95309,2.26769,2.60049,2.88525,3.04747,3.03493,2.71216,2.04298,1.13659,0.434887,23.08602074,1.03232,10.81,0.0768,1.07218,11.39,15.802,2020,10,5,8,5,38,10/5/2020,8:05:38 AM,10/05/2020 8:05:38,6.5535,124.957,32.4476,57,2470,2684,3242,0,24899,4,0,0.929715,2.91508,,51.28985347,2.629665612,,RTK,08:05:38,34597.04,15.82164,0.952,11.24,2.19,,,,,,,,,0001_20201005_080301
0,0,0,0.00161873,0.0107959,0.0308771,0.0358493,0.0508761,0.10404,0.194399,0.219665,0.209232,0.203311,0.219699,0.244809,0.293004,0.330011,0.393953,0.421768,0.474763,0.531608,0.619127,0.768857,0.982747,1.12855,1.30507,1.52479,1.79756,2.1607,2.66754,3.30474,3.91225,3.93524,2.92241,1.39385,0.467393,20.22996013,1.03085,10.81,0.0768,1.07359,11.78,15.802,2020,10,5,8,5,39,10/5/2020,8:05:39 AM,10/05/2020 8:05:39,6.5535,137.843,32.8611,57,2491,2684,3285,0,24960,4,0,0.927175,3.02452,,51.28983859,2.629650542,,RTK,08:05:39,34596.96,15.8214,2.056,11.12,2.348,,,,,,,,,0001_20201005_080301
0,0,0,0.00163385,0.00997496,0.0273837,0.0322514,0.0472918,0.0977583,0.187112,0.223671,0.222564,0.22339,0.245859,0.276157,0.332897,0.378783,0.451414,0.479458,0.52182,0.564279,0.621757,0.719673,0.860928,0.948046,1.08048,1.28766,1.61184,2.158,3.0694,4.46571,6.10495,7.12396,6.48898,4.10921,1.62407,21.14719201,1.02938,10.77,0.0768,1.07359,11.88,15.803,2020,10,5,8,5,40,10/5/2020,8:05:40 AM,10/05/2020 8:05:40,6.5535,166.823,46.5984,57,2513,2697,3287,0,24975,4,0,0.925853,3.08158,,51.28982371,2.629635471,,RTK,08:05:40,34600.08,15.82136,5.312,11.384,2.168,,,,,,,,,0001_20201005_080301
0,0,0,0.00178233,0.011262,0.0310985,0.0358471,0.0509294,0.10374,0.194317,0.224079,0.217603,0.217402,0.243848,0.284006,0.359241,0.425878,0.53107,0.588393,0.67688,0.774006,0.943093,1.2505,1.73771,2.12395,2.47523,2.73963,2.91647,3.04288,3.14607,3.18386,3.0786,2.63367,1.82501,0.89787,0.322838,28.53077533,1.02351,10.82,0.0768,1.07359,11.71,15.802,2020,10,5,8,5,41,10/5/2020,8:05:41 AM,10/05/2020 8:05:41,6.5535,110.139,37.2888,57,2490,2698,3234,0,24948,4,0,0.920566,3.31064,,51.28980883,2.629620401,,RTK,08:05:41,34602,15.82128,5.264,11.692,2.474,,,,,,,,,0001_20201005_080301
0,0,0,0.00169831,0.0111303,0.031834,0.0374135,0.0533526,0.107877,0.198834,0.222191,0.210288,0.20545,0.226334,0.259497,0.320517,0.368286,0.442713,0.470795,0.525552,0.582774,0.689228,0.888365,1.19967,1.43692,1.67245,1.90987,2.19502,2.62069,3.34149,4.47625,5.86818,6.42526,5.03423,2.46613,0.817246,24.70648971,1.0213,10.82,0.0768,1.07288,11.74,15.802,2020,10,5,8,5,42,10/5/2020,8:05:42 AM,10/05/2020 8:05:42,6.5535,152.554,45.3175,57,2475,2690,3235,0,24953,4,0,0.919186,3.37066,8:05:42 AM,51.28979395,2.62960533,,RTK,08:05:42,34602.32,15.82156,5.696,11.676,3.122,,,,,,,,,0001_20201005_080301
0,0,0,0.00216515,0.0137175,0.0368653,0.0402686,0.0529293,0.102826,0.182494,0.19889,0.186671,0.183235,0.204321,0.239014,0.298251,0.344429,0.410539,0.428044,0.461581,0.494673,0.562845,0.698869,0.908546,1.04959,1.17026,1.27929,1.4435,1.79195,2.4857,3.60915,4.96282,5.5754,4.36458,2.03665,0.643896,18.88061385,1.02792,10.81,0.0768,1.07218,12.11,15.802,2020,10,5,8,5,43,10/5/2020,8:05:43 AM,10/05/2020 8:05:43,6.5535,152.593,36.464,56,2498,2682,3284,0,25012,4,0,0.925745,3.08626,8:05:43 AM,51.28978325,2.6295915,,RTK,08:05:43,34603.64,15.8208,3.432,11.524,2.022,,,,,,,,,0001_20201005_080301
0,0,0,0.00108159,0.00784478,0.0236187,0.0283656,0.0433177,0.0938259,0.184439,0.214635,0.202091,0.194222,0.207257,0.228453,0.272798,0.309351,0.375224,0.4074,0.467332,0.533455,0.630308,0.788231,0.98402,1.06515,1.13939,1.23842,1.39841,1.68944,2.18347,2.95758,3.90039,4.47356,3.87413,2.16779,0.710346,17.86913027,1.03085,10.82,0.0768,1.07359,12.26,15.802,2020,10,5,8,5,44,10/5/2020,8:05:44 AM,10/05/2020 8:05:44,6.5535,141.353,32.9953,57,2511,2689,3275,0,25034,4,0,0.927175,3.02452,8:05:44 AM,51.28977202,2.62957933,,RTK,08:05:44,34602.04,15.821,4.096,11.72,1.772,,,,,,,,,0001_20201005_080301
0,0,0,0.0017543,0.0109641,0.0291882,0.0321876,0.0440607,0.0887823,0.165108,0.190878,0.187546,0.188077,0.208569,0.23613,0.279442,0.307952,0.354507,0.364139,0.390147,0.416153,0.455691,0.528481,0.632774,0.687873,0.747675,0.815756,0.904824,1.06542,1.3626,1.89302,2.6757,3.44836,3.53257,2.367,0.905582,12.5896992,1.04114,10.81,0.0768,1.07148,12.14,15.802,2020,10,5,8,5,45,10/5/2020,8:05:45 AM,10/05/2020 8:05:45,6.5535,144.393,25.5189,56,2491,2699,3244,0,25016,4,0,0.938271,2.54864,8:05:45 AM,51.28976237,2.62957317,,RTK,08:05:45,34598.12,15.82144,4.312,12.016,2.062,,,,,,,,,0001_20201005_080301
0,0,0,0.00282227,0.0151859,0.037617,0.0412402,0.054207,0.10146,0.175111,0.192717,0.18241,0.177577,0.191805,0.214792,0.26136,0.302158,0.37171,0.415361,0.48614,0.565548,0.704308,0.95342,1.3522,1.6981,2.02296,2.2592,2.38627,2.44672,2.54479,2.77611,3.23643,3.75248,3.78512,2.69519,1.26802,22.93329937,1.02938,10.82,0.0768,1.07148,12.23,15.802,2020,10,5,8,5,46,10/5/2020,8:05:46 AM,10/05/2020 8:05:46,6.5535,147.03,37.6705,56,2490,2698,3253,0,25030,4,0,0.927677,3.00287,8:05:46 AM,51.2897528,2.6295665,,RTK,08:05:46,34592.08,15.82236,4.136,12.044,2.128,,,,,,,,,0001_20201005_080301
0,0,0,0.00122212,0.00849815,0.0257131,0.0317012,0.0483394,0.102673,0.198606,0.230232,0.218513,0.212588,0.232217,0.263178,0.323789,0.370081,0.441144,0.461625,0.507625,0.553559,0.650833,0.84374,1.18785,1.53558,2.00132,2.59969,3.30929,4.09314,4.94868,5.87781,6.78163,7.05723,6.05603,3.66835,1.40389,31.27923697,1.02277,10.82,0.0768,1.07288,12.49,15.802,2020,10,5,8,5,47,10/5/2020,8:05:47 AM,10/05/2020 8:05:47,6.5535,168.281,56.2464,56,2515,2694,3282,0,25070,4,0,0.920509,3.31315,8:05:47 AM,51.28974128,2.62955333,,RTK,08:05:47,34593.84,15.82152,1.592,12,2.45,,,,,,,,,0001_20201005_080301
0,0,0,0.00305108,0.015577,0.0361186,0.0376829,0.0478719,0.087869,0.149642,0.166846,0.1618,0.162752,0.181413,0.208619,0.251923,0.284015,0.333613,0.352377,0.391213,0.432204,0.512754,0.661746,0.878363,1.0184,1.11396,1.16475,1.20364,1.278,1.47219,1.87471,2.53224,3.18812,3.09928,1.9345,0.755284,14.48310048,1.03894,10.82,0.0768,1.07148,12.54,15.802,2020,10,5,8,5,48,10/5/2020,8:05:48 AM,10/05/2020 8:05:48,6.5535,144.528,25.9925,57,2515,2690,3274,0,25079,3,0,0.936285,2.63341,8:05:48 AM,51.28973048,2.62954133,,RTK,08:05:48,34593.6,15.8204,4.896,12.136,2.032,,,,,,,,,0001_20201005_080301
0,0,0,0.00221663,0.0128214,0.0319405,0.0338284,0.0442827,0.0858486,0.154128,0.175273,0.170879,0.170249,0.186005,0.206973,0.241933,0.265895,0.308854,0.323844,0.357149,0.391859,0.453588,0.564366,0.739524,0.888125,1.07712,1.30175,1.53657,1.75934,1.95242,2.14027,2.32724,2.43851,2.18079,1.40272,0.57474,15.57705223,1.03747,10.81,0.0768,1.07077,12.58,15.801,2020,10,5,8,5,49,10/5/2020,8:05:49 AM,10/05/2020 8:05:49,6.5535,130.535,24.501,56,2513,2692,3276,0,25084,4,0,0.935575,2.66376,8:05:49 AM,51.2897218,2.62953433,,RTK,08:05:49,34592.16,15.82072,1.32,12.328,1.216,,,,,,,,,0001_20201005_080301
0,0,0,0.00264582,0.0139669,0.0333045,0.035465,0.04647,0.0875036,0.152752,0.173165,0.169204,0.170527,0.189473,0.215561,0.255354,0.281085,0.322743,0.334228,0.365576,0.397694,0.459692,0.574661,0.749335,0.880171,1.0163,1.1719,1.38016,1.69539,2.14576,2.69506,3.16578,3.2145,2.61734,1.46627,0.516584,16.01514682,1.036,10.82,0.0768,1.07288,12.54,15.802,2020,10,5,8,5,50,10/5/2020,8:05:50 AM,10/05/2020 8:05:50,6.5535,144.931,26.9956,57,2500,2689,3250,0,25078,4,0,0.932412,2.79922,8:05:50 AM,51.28971225,2.62952617,,RTK,08:05:50,34592,15.82188,4.152,12.4,2.154,,,,,,,,,0001_20201005_080301
0,0,0,0.00194763,0.0115686,0.0303309,0.033885,0.0465191,0.0920416,0.168042,0.19243,0.186489,0.183981,0.199322,0.220604,0.260085,0.288179,0.337759,0.356674,0.399247,0.443751,0.519752,0.64878,0.827405,0.947218,1.10377,1.34408,1.72966,2.34944,3.32797,4.78347,6.52031,7.48455,6.33092,3.48103,1.24701,21.03440083,1.02351,10.82,0.0768,1.07359,12.61,15.803,2020,10,5,8,5,51,10/5/2020,8:05:51 AM,10/05/2020 8:05:51,6.5535,175.165,46.0982,56,2487,2694,3248,0,25089,4,0,0.920566,3.31064,8:05:51 AM,51.28970093,2.629516,,RTK,08:05:51,34591.68,15.82348,3.744,12.4,2.418,,,,,,,,,0001_20201005_080301
0,0,0,0.00275928,0.0161083,0.0402948,0.0419146,0.0518477,0.0957911,0.161964,0.171341,0.157618,0.151808,0.165233,0.189841,0.234825,0.273344,0.331577,0.355206,0.392544,0.431375,0.505339,0.645883,0.848641,0.969162,1.05125,1.12613,1.2592,1.50916,1.95969,2.62494,3.52489,4.1584,3.93458,2.54378,1.13028,15.76478678,1.03453,10.81,0.0768,1.07288,12.95,15.803,2020,10,5,8,5,52,10/5/2020,8:05:52 AM,10/05/2020 8:05:52,6.5535,157.042,31.0567,56,2493,2688,3274,0,25143,4,0,0.931089,2.856,8:05:52 AM,51.28969012,2.62950367,,RTK,08:05:52,34591.92,15.823,6.424,12.4,2.426,,,,,,,,,0001_20201005_080301
0,0,0,0.00200685,0.0119006,0.0309428,0.0343335,0.0470815,0.0926161,0.167017,0.187237,0.176473,0.170282,0.182527,0.205609,0.251312,0.291824,0.354722,0.384891,0.430872,0.480143,0.554341,0.678402,0.842343,0.925856,1.00326,1.08788,1.19257,1.34933,1.61497,2.05392,2.68992,3.2155,3.06519,1.97326,0.862132,14.80466235,1.03453,10.82,0.0768,1.07148,13.22,15.803,2020,10,5,8,5,53,10/5/2020,8:05:53 AM,10/05/2020 8:05:53,6.5535,145.331,26.6107,57,2533,2693,3323,0,25184,4,0,0.932312,2.80351,8:05:53 AM,51.28968123,2.6294895,,RTK,08:05:53,34591.84,15.823,5.56,12.604,2.038,,,,,,,,,0001_20201005_080301
0,0,0,0.0016813,0.0111525,0.0308072,0.0341968,0.0467686,0.0946386,0.175288,0.197931,0.187828,0.185264,0.205115,0.234152,0.281043,0.311537,0.360327,0.367742,0.399429,0.431211,0.494598,0.611017,0.764163,0.837427,0.924881,1.08001,1.35826,1.82042,2.56434,3.65348,4.91979,5.50435,4.60591,2.46184,0.820968,17.664708,1.02865,10.82,0.0768,1.07288,12.97,15.803,2020,10,5,8,5,54,10/5/2020,8:05:54 AM,10/05/2020 8:05:54,6.5535,167.806,35.9776,56,2528,2693,3255,0,25145,4,0,0.925799,3.08392,8:05:54 AM,51.2896727,2.6294795,,RTK,08:05:54,34591.96,15.82336,2.408,12.928,1.814,,,,,,,,,0001_20201005_080301
0,0,0,0.00257658,0.0136915,0.0324412,0.0341157,0.044573,0.0849934,0.150982,0.175114,0.174215,0.176647,0.194351,0.217509,0.257277,0.288225,0.34255,0.37069,0.422063,0.4783,0.570855,0.724322,0.926212,1.03294,1.10923,1.17159,1.25614,1.41768,1.72759,2.26528,2.98915,3.49979,3.08666,1.79372,0.656254,15.66215338,1.03379,10.82,0.0768,1.07218,12.7,15.804,2020,10,5,8,5,55,10/5/2020,8:05:55 AM,10/05/2020 8:05:55,6.5535,144.216,27.6877,56,2481,2691,3205,0,25104,3,0,0.931039,2.85818,8:05:55 AM,51.28966272,2.629475,,RTK,08:05:55,34592.52,15.8234,1.856,13.008,2.25,,,,,,,,,0001_20201005_080301
0,0,0,0.00209953,0.0130407,0.0340351,0.0364126,0.0476225,0.0925821,0.16479,0.181443,0.170934,0.165607,0.178022,0.198754,0.235406,0.261658,0.308552,0.329159,0.378369,0.43324,0.526192,0.682961,0.86253,0.908564,0.887761,0.83464,0.807085,0.860475,1.06769,1.54799,2.52579,3.93982,4.68531,3.21858,1.23259,12.21761453,1.036,10.8,0.0768,1.07218,13.08,15.804,2020,10,5,8,5,56,10/5/2020,8:05:56 AM,10/05/2020 8:05:56,6.5535,164.304,27.8197,56,2457,2686,3244,0,25163,4,0,0.933024,2.77298,8:05:56 AM,51.28965118,2.6294665,,RTK,08:05:56,34593.6,15.82344,3.088,12.652,2.298,,,,,,,,,0001_20201005_080301
0,0,0,0.00167407,0.0105014,0.0282054,0.0315589,0.0440378,0.0891574,0.165888,0.190988,0.183985,0.182801,0.202254,0.23021,0.279226,0.317005,0.384838,0.424551,0.502067,0.590612,0.72701,0.942684,1.20289,1.3251,1.42636,1.52192,1.65247,1.89599,2.39423,3.23442,4.28694,4.87451,4.17825,2.40589,0.841451,20.18263397,1.03159,10.81,0.0768,1.07218,13.53,15.805,2020,10,5,8,5,57,10/5/2020,8:05:57 AM,10/05/2020 8:05:57,6.5535,143.251,36.7697,57,2529,2704,3336,0,25233,4,0,0.929053,2.94356,8:05:57 AM,51.28963885,2.62945233,,RTK,08:05:57,34592.72,15.8252,4.488,12.644,1.724,,,,,,,,,0001_20201005_080301
0,0,0,0.00275769,0.0147289,0.0354522,0.0376916,0.0489009,0.0922145,0.161263,0.181072,0.175963,0.175202,0.192931,0.21991,0.268777,0.310783,0.378956,0.417868,0.480081,0.54866,0.655961,0.833556,1.07134,1.20728,1.31073,1.40356,1.54202,1.78932,2.18909,2.75216,3.48096,4.11235,3.98719,2.55775,0.969505,18.49822879,1.04041,10.79,0.0768,1.07288,13.43,15.805,2020,10,5,8,5,58,10/5/2020,8:05:58 AM,10/05/2020 8:05:58,6.5535,141.536,33.606,57,2545,2697,3274,0,25217,4,0,0.93638,2.62937,8:05:58 AM,51.28962973,2.62944133,,RTK,08:05:58,34592,15.826,3.048,13.1,2.284,,,,,,,,,0001_20201005_080301
0,0,0,0.00262647,0.014635,0.0355045,0.0369159,0.0468297,0.0884675,0.154773,0.172937,0.168559,0.170303,0.190355,0.216247,0.257489,0.284961,0.333955,0.353578,0.403175,0.456983,0.572298,0.794146,1.14398,1.42128,1.64376,1.78977,1.90136,2.03721,2.28607,2.69198,3.21947,3.48544,2.94956,1.66573,0.629035,19.67014807,1.03012,10.82,0.0768,1.07288,13.22,15.805,2020,10,5,8,5,59,10/5/2020,8:05:59 AM,10/05/2020 8:05:59,6.5535,138.789,31.6194,57,2500,2696,3238,0,25185,3,0,0.927122,3.02682,8:05:59 AM,51.2896233,2.62943433,,RTK,08:05:59,34592.12,15.826,2.304,13.372,2.008,,,,,,,,,0001_20201005_080301
0,0,0,0.00150951,0.00995311,0.0279507,0.0320444,0.0453211,0.0924622,0.172482,0.196371,0.186306,0.182687,0.200629,0.228671,0.282279,0.325173,0.394656,0.424968,0.481513,0.541621,0.668994,0.922847,1.38515,1.85564,2.37756,2.85606,3.18998,3.34177,3.34544,3.27759,3.142,2.7943,2.13123,1.20161,0.471517,27.04762802,1.03012,10.81,0.0768,1.07359,13.43,15.806,2020,10,5,8,6,0,10/5/2020,8:06:00 AM,10/05/2020 8:06:00,6.5535,132.175,36.7883,56,2496,2695,3263,0,25217,4,0,0.926514,3.05304,8:06:00 AM,51.28961353,2.6294255,,RTK,08:06:00,34592.08,15.826,2.36,13.128,1.7,,,,,,,,,0001_20201005_080301
0,0,0,0.00133083,0.0098726,0.0300045,0.0348712,0.0485875,0.0992182,0.182796,0.198198,0.181558,0.172714,0.186581,0.21052,0.253388,0.282405,0.330708,0.342017,0.376146,0.411237,0.474864,0.591974,0.756883,0.856455,0.972974,1.1301,1.35071,1.66811,2.16471,2.96822,4.20379,5.44625,5.52976,3.57466,1.42656,16.28715283,1.03453,10.81,0.0768,1.07288,13.73,15.805,2020,10,5,8,6,1,10/5/2020,8:06:01 AM,10/05/2020 8:06:01,6.5535,166.157,36.4682,56,2520,2695,3288,0,25265,4,0,0.931089,2.856,8:06:01 AM,51.28960048,2.62941483,,RTK,08:06:01,34592.6,15.82504,2.44,13.104,1.462,,,,,,,,,0001_20201005_080301
0,0,0,0.00300693,0.0155411,0.03606,0.0373416,0.0474551,0.0882777,0.152551,0.17078,0.165234,0.164448,0.180084,0.203752,0.246362,0.282827,0.342718,0.376523,0.430355,0.489391,0.583435,0.740664,0.973723,1.15595,1.37102,1.62938,1.89918,2.08673,2.14561,2.09271,2.00886,1.85301,1.54452,1.01603,0.483889,18.11110943,1.03894,10.82,0.0768,1.07359,13.87,15.805,2020,10,5,8,6,2,10/5/2020,8:06:02 AM,10/05/2020 8:06:02,6.5535,120.032,25.0174,57,2532,2699,3302,0,25286,4,0,0.934444,2.71213,8:06:02 AM,51.2895903,2.62940267,,RTK,08:06:02,34593.68,15.8246,1.184,13.356,2.05,,,,,,,,,0001_20201005_080301
0,0,0,0.0024228,0.0135574,0.0339292,0.0368817,0.0488838,0.0937043,0.165998,0.187288,0.18114,0.179848,0.196477,0.219031,0.257219,0.284826,0.334592,0.357686,0.403632,0.453596,0.523435,0.630718,0.74981,0.780896,0.801614,0.841002,0.937793,1.14985,1.55488,2.25432,3.23129,4.02834,3.7811,2.31344,0.836925,13.6750302,1.03012,10.8,0.0768,1.07288,13.83,15.805,2020,10,5,8,6,3,10/5/2020,8:06:03 AM,10/05/2020 8:06:03,6.5535,149.42,27.8661,57,2535,2690,3291,0,25280,4,0,0.927122,3.02682,8:06:03 AM,51.2895836,2.629389,,RTK,08:06:03,34593.84,15.82492,4.096,13.608,2.09,,,,,,,,,0001_20201005_080301
0,0,0,0.00266613,0.0144106,0.0351768,0.0378957,0.0497532,0.0937865,0.163008,0.180154,0.171209,0.167156,0.180936,0.202528,0.242451,0.273446,0.327248,0.356108,0.409606,0.468478,0.581321,0.797164,1.16064,1.49311,1.8004,2.01278,2.11198,2.12631,2.09928,2.08537,2.1575,2.23516,2.08371,1.4099,0.62735,19.64437193,1.0382,10.81,0.0768,1.07359,13.65,15.805,2020,10,5,8,6,4,10/5/2020,8:06:04 AM,10/05/2020 8:06:04,6.5535,129.416,28.158,57,2509,2681,3234,0,25252,3,0,0.933783,2.74043,8:06:04 AM,51.28957555,2.62937883,,RTK,08:06:04,34593.84,15.82424,4.784,13.7,2.256,,,,,,,,,0001_20201005_080301
0,0,0,0.00206106,0.0123657,0.0323893,0.0358311,0.0484086,0.0943406,0.168647,0.188019,0.178741,0.175538,0.192154,0.218032,0.261752,0.291828,0.339087,0.351064,0.38593,0.421951,0.500329,0.652154,0.885318,1.0565,1.21383,1.35555,1.49368,1.66741,1.95053,2.41229,3.06876,3.50872,3.01681,1.5547,0.509016,16.58573036,1.03453,10.81,0.0768,1.07359,13.85,15.805,2020,10,5,8,6,5,10/5/2020,8:06:05 AM,10/05/2020 8:06:05,6.5535,141.842,28.2437,57,2487,2681,3251,0,25283,4,0,0.930479,2.88222,8:06:05 AM,51.28956468,2.62937367,,RTK,08:06:05,34594.08,15.82408,3.824,13.564,2.236,,,,,,,,,0001_20201005_080301
0,0,0,0.00196666,0.0129864,0.0361553,0.040299,0.0537262,0.104698,0.184679,0.196848,0.17812,0.16952,0.183961,0.21122,0.260336,0.296322,0.3519,0.368988,0.41359,0.460573,0.559662,0.750653,1.02388,1.18692,1.27357,1.29616,1.36138,1.61838,2.31413,3.76223,6.20435,8.17922,6.63287,2.74929,0.798228,18.67285356,1.02792,10.81,0.0768,1.07218,14.23,15.805,2020,10,5,8,6,6,10/5/2020,8:06:06 AM,10/05/2020 8:06:06,6.5535,166.75,43.2368,56,2519,2696,3313,0,25342,4,0,0.925745,3.08626,8:06:06 AM,51.28955202,2.62936767,,RTK,08:06:06,34595,15.824,2.112,13.504,2.874,,,,,,,,,0001_20201005_080301
0,0,0,0.00133502,0.00880553,0.0253586,0.0303595,0.0453069,0.0946973,0.180871,0.208837,0.200169,0.195555,0.214309,0.245349,0.301341,0.342704,0.399642,0.406214,0.431677,0.455724,0.515794,0.640532,0.838473,0.981086,1.13162,1.31196,1.57728,2.04425,2.82683,3.90861,4.88412,5.03954,3.85336,1.89578,0.631926,19.56468985,1.03159,10.81,0.0768,1.07148,14.33,15.805,2020,10,5,8,6,7,10/5/2020,8:06:07 AM,10/05/2020 8:06:07,6.5535,149.685,35.8694,57,2553,2703,3302,0,25358,3,0,0.929663,2.9173,8:06:07 AM,51.28954098,2.629356,,RTK,08:06:07,34595,15.824,2.808,13.808,1.546,,,,,,,,,0001_20201005_080301
0,0,0,0.00213638,0.0123224,0.0316794,0.0353694,0.0488573,0.0960001,0.174007,0.199573,0.192959,0.191741,0.210592,0.237949,0.288469,0.327961,0.392839,0.422205,0.483391,0.5499,0.690091,0.957183,1.38886,1.7533,2.08958,2.35807,2.54698,2.66803,2.79725,3.00844,3.34225,3.54982,3.15287,1.94252,0.756953,24.15573498,1.02645,10.81,0.0768,1.07148,14.02,15.805,2020,10,5,8,6,8,10/5/2020,8:06:08 AM,10/05/2020 8:06:08,6.5535,132.906,36.9001,57,2528,2698,3251,0,25309,4,0,0.925028,3.11723,8:06:08 AM,51.28953353,2.62934233,,RTK,08:06:08,34595.36,15.824,3.192,14.136,1.25,,,,,,,,,0001_20201005_080301
0,0,0,0.0032303,0.0160876,0.0364619,0.0374438,0.0469223,0.0859014,0.14691,0.166339,0.166174,0.170794,0.192799,0.221829,0.26537,0.295286,0.343108,0.361041,0.400312,0.441649,0.524473,0.677373,0.926027,1.1459,1.37479,1.55944,1.64255,1.63566,1.61026,1.63951,1.73913,1.80442,1.61085,1.0336,0.448437,16.1336413,1.04261,10.8,0.0768,1.07288,14,15.805,2020,10,5,8,6,9,10/5/2020,8:06:09 AM,10/05/2020 8:06:09,6.5535,114.607,22.7701,56,2496,2688,3241,0,25306,3,0,0.938364,2.54471,8:06:09 AM,51.28952708,2.6293305,,RTK,08:06:09,34595.56,15.824,4.096,14.012,1.664,,,,,,,,,0001_20201005_080301
0,0,0,0.00193703,0.0115221,0.0302231,0.0337505,0.0462893,0.0914261,0.166349,0.189114,0.183098,0.180945,0.198027,0.222781,0.267866,0.302267,0.361677,0.391321,0.449672,0.513788,0.627253,0.828246,1.13466,1.37654,1.63787,1.92066,2.20672,2.47227,2.68027,2.80948,2.80804,2.53802,1.91876,1.07407,0.438569,21.33602213,1.03673,10.81,0.0768,1.07148,14.35,15.805,2020,10,5,8,6,10,10/5/2020,8:06:10 AM,10/05/2020 8:06:10,6.5535,130.52,30.1135,56,2503,2676,3283,0,25361,4,0,0.934299,2.71837,8:06:10 AM,51.28951793,2.6293195,,RTK,08:06:10,34594.8,15.82412,3.96,13.792,2.708,,,,,,,,,0001_20201005_080301
0,0,0,0.00131376,0.00905633,0.0265939,0.0315251,0.0462377,0.0968665,0.185353,0.214814,0.205796,0.202452,0.220687,0.245404,0.294846,0.332174,0.401586,0.436454,0.509643,0.590924,0.748027,1.04272,1.51595,1.9091,2.2713,2.53415,2.69628,2.87459,3.25499,4.02255,5.29862,6.59644,6.48733,4.01274,1.45645,26.92138329,1.02057,10.81,0.0768,1.07359,14.64,15.805,2020,10,5,8,6,11,10/5/2020,8:06:11 AM,10/05/2020 8:06:11,6.5535,162.952,50.773,57,2542,2690,3321,0,25407,4,0,0.917923,3.42567,8:06:11 AM,51.28950622,2.6293095,,RTK,08:06:11,34594.76,15.824,1.944,13.924,2.552,,,,,,,,,0001_20201005_080301
0,0,0,0.00260265,0.0136378,0.0329045,0.0359241,0.0484902,0.0928358,0.165186,0.188992,0.186307,0.186785,0.206021,0.233937,0.281339,0.3192,0.375724,0.395714,0.427218,0.458639,0.500933,0.574408,0.677692,0.734396,0.8077,0.915598,1.09633,1.42978,2.02178,2.98154,4.24236,5.34914,5.44154,3.90989,1.59559,15.39161405,1.03747,10.81,0.0768,1.07148,14.49,15.805,2020,10,5,8,6,12,10/5/2020,8:06:12 AM,10/05/2020 8:06:12,6.5535,168.371,35.9301,57,2542,2692,3276,0,25383,4,0,0.934961,2.69003,8:06:12 AM,51.28949557,2.62930083,,RTK,08:06:12,34595.36,15.824,1.88,14.28,1.55,,,,,,,,,0001_20201005_080301
0,0,0,0.00215635,0.0128582,0.0339469,0.0380202,0.0516829,0.100959,0.181273,0.203384,0.194254,0.190513,0.206875,0.231066,0.276665,0.311646,0.373021,0.403538,0.465468,0.53386,0.657724,0.876661,1.19969,1.43894,1.66539,1.86334,2.03774,2.24484,2.60014,3.1634,3.84988,4.11106,3.3574,1.80507,0.683557,21.55905155,1.02792,10.82,0.0768,1.07288,14.42,15.805,2020,10,5,8,6,13,10/5/2020,8:06:13 AM,10/05/2020 8:06:13,6.5535,142.671,35.366,56,2496,2684,3238,0,25372,4,0,0.925138,3.1125,8:06:13 AM,51.2894869,2.62929233,,RTK,08:06:13,34595.76,15.82388,2.176,14.416,1.37,,,,,,,,,0001_20201005_080301
0,0,0,0.00275527,0.014551,0.0355336,0.039059,0.0527158,0.101478,0.182257,0.211366,0.211708,0.214884,0.238695,0.268639,0.323208,0.367089,0.444576,0.491215,0.57527,0.669521,0.851165,1.18957,1.73581,2.19827,2.59925,2.88623,3.07363,3.19667,3.25564,3.22396,3.07609,2.71673,2.07051,1.22699,0.544742,28.65471567,1.02057,10.82,0.0768,1.07288,14.77,15.804,2020,10,5,8,6,14,10/5/2020,8:06:14 AM,10/05/2020 8:06:14,6.5535,120.406,38.2898,56,2503,2685,3285,0,25427,4,0,0.918525,3.39945,8:06:14 AM,51.28947747,2.629283,,RTK,08:06:14,34599.6,15.82256,3.232,14.236,1.982,,,,,,,,,0001_20201005_080301
0,0,0,0.00128934,0.00964955,0.0306278,0.0379721,0.0568604,0.119331,0.224977,0.246363,0.223397,0.20994,0.225157,0.254414,0.316175,0.368927,0.457012,0.500273,0.578339,0.664487,0.821754,1.12425,1.60351,1.96766,2.26091,2.43402,2.53854,2.70481,3.10061,3.79452,4.6899,5.01371,3.89888,1.84663,0.55259,26.87577519,1.02351,10.8,0.0768,1.07288,15.01,15.802,2020,10,5,8,6,15,10/5/2020,8:06:15 AM,10/05/2020 8:06:15,6.5535,137.06,42.8775,56,2556,2697,3337,0,25464,4,0,0.92117,3.28442,8:06:15 AM,51.28946663,2.62927,,RTK,08:06:15,34603.04,15.82108,3.92,14.304,2.284,,,,,,,,,0001_20201005_080301
0,0,0,0.0023061,0.0137405,0.0360483,0.0396485,0.0521846,0.100904,0.180421,0.202518,0.198767,0.200359,0.226966,0.264671,0.323797,0.360776,0.420083,0.437877,0.495717,0.55742,0.702078,0.983596,1.43504,1.81248,2.16625,2.49448,2.84046,3.24017,3.65528,3.92426,3.90286,3.33062,2.23448,1.0463,0.364888,27.368298,1.02938,10.81,0.0768,1.07359,14.74,15.802,2020,10,5,8,6,16,10/5/2020,8:06:16 AM,10/05/2020 8:06:16,6.5535,121.096,38.2474,56,2538,2699,3257,0,25422,4,0,0.925853,3.08158,8:06:16 AM,51.28945777,2.629257,,RTK,08:06:16,34603.24,15.821,3.608,14.668,1.914,,,,,,,,,0001_20201005_080301
0,0,0,0.00282604,0.0148196,0.035697,0.0385993,0.0511003,0.0969944,0.171216,0.196121,0.193268,0.194731,0.215726,0.24526,0.297813,0.33972,0.408586,0.444958,0.507626,0.575369,0.701509,0.932567,1.3112,1.65302,2.01321,2.37376,2.74857,3.11821,3.41752,3.56488,3.54308,3.21723,2.43788,1.35165,0.547719,25.86487664,1.02792,10.81,0.0768,1.07288,14.6,15.802,2020,10,5,8,6,17,10/5/2020,8:06:17 AM,10/05/2020 8:06:17,6.5535,124.98,36.9624,56,2504,2686,3240,0,25401,4,0,0.925138,3.1125,8:06:17 AM,51.28945008,2.62924883,,RTK,08:06:17,34602,15.82184,6.096,14.74,1.228,,,,,,,,,0001_20201005_080301
0,0,0,0.00169779,0.0101761,0.0276787,0.0326793,0.0479322,0.0978789,0.184624,0.217926,0.215449,0.216797,0.240662,0.273132,0.33646,0.391361,0.484593,0.541038,0.634994,0.740294,0.921297,1.23658,1.72056,2.10941,2.50965,2.89987,3.2551,3.58868,3.92765,4.27468,4.54477,4.41875,3.43104,1.8205,0.654086,31.13884999,1.02351,10.81,0.0768,1.07359,14.92,15.802,2020,10,5,8,6,18,10/5/2020,8:06:18 AM,10/05/2020 8:06:18,6.5535,131.4,46.008,56,2509,2671,3276,0,25451,4,0,0.920566,3.31064,8:06:18 AM,51.28943948,2.62924117,,RTK,08:06:18,34604.84,15.82052,1.824,14.444,1.666,,,,,,,,,0001_20201005_080301
0,0,0,0.00289119,0.0157876,0.039156,0.0424331,0.0552085,0.103886,0.180378,0.197379,0.188444,0.184902,0.20309,0.231344,0.280364,0.318218,0.377715,0.402831,0.451432,0.503043,0.585453,0.727148,0.910516,1.00222,1.07697,1.17265,1.36104,1.74168,2.4543,3.57664,4.99555,5.92571,5.47997,3.34901,1.31656,18.38711939,1.03306,10.82,0.0768,1.07148,15.18,15.802,2020,10,5,8,6,19,10/5/2020,8:06:19 AM,10/05/2020 8:06:19,6.5535,175.795,39.4539,57,2545,2694,3312,0,25491,4,0,0.930988,2.86036,8:06:19 AM,51.28942798,2.62923017,,RTK,08:06:19,34603.16,15.8212,5.152,14.492,2.48,,,,,,,,,0001_20201005_080301
0,0,0,0.00107463,0.00769852,0.0233907,0.0285671,0.043975,0.0958918,0.191539,0.22955,0.224865,0.22222,0.241408,0.264333,0.307123,0.332626,0.383842,0.397533,0.441477,0.48684,0.573155,0.735027,0.99245,1.20233,1.45896,1.77909,2.17758,2.7609,3.67069,5.04094,6.5147,6.9851,5.38796,2.62295,0.883164,24.31507575,1.02204,10.82,0.0768,1.07148,15.12,15.802,2020,10,5,8,6,20,10/5/2020,8:06:20 AM,10/05/2020 8:06:20,6.5535,168.377,46.7089,57,2543,2690,3281,0,25482,4,0,0.921055,3.2894,8:06:20 AM,51.2894187,2.6292185,,RTK,08:06:20,34602.76,15.8214,4.048,14.82,2.274,,,,,,,,,0001_20201005_080301
0,0,0,0.00171579,0.010789,0.0301916,0.0356154,0.0515766,0.105092,0.196419,0.22512,0.216466,0.213308,0.235493,0.269293,0.331853,0.380401,0.453923,0.478535,0.527562,0.577109,0.677192,0.871203,1.2084,1.53914,1.96657,2.49325,3.09854,3.78038,4.5415,5.33589,6.04648,6.15415,5.03261,2.78454,1.02964,29.85252739,1.01983,10.81,0.0768,1.07288,15.05,15.802,2020,10,5,8,6,21,10/5/2020,8:06:21 AM,10/05/2020 8:06:21,6.5535,152.568,50.8999,57,2512,2687,3244,0,25471,4,0,0.917864,3.42826,8:06:21 AM,51.28940948,2.62921,,RTK,08:06:21,34604.92,15.82052,8.792,14.996,2.38,,,,,,,,,0001_20201005_080301
