Volume conc (microl/l) 1,Volume conc (microl/l) 2,Volume conc (microl/l) 3,Volume conc (microl/l) 4,Volume conc (microl/l) 5,Volume conc (microl/l) 6,Volume conc (microl/l) 7,Volume conc (microl/l) 8,Volume conc (microl/l) 9,Volume conc (microl/l) 10,Volume conc (microl/l) 11,Volume conc (microl/l) 12,Volume conc (microl/l) 13,Volume conc (microl/l) 14,Volume conc (microl/l) 15,Volume conc (microl/l) 16,Volume conc (microl/l) 17,Volume conc (microl/l) 18,Volume conc (microl/l) 19,Volume conc (microl/l) 20,Volume conc (microl/l) 21,Volume conc (microl/l) 22,Volume conc (microl/l) 23,Volume conc (microl/l) 24,Volume conc (microl/l) 25,Volume conc (microl/l) 26,Volume conc (microl/l) 27,Volume conc (microl/l) 28,Volume conc (microl/l) 29,Volume conc (microl/l) 30,Volume conc (microl/l) 31,Volume conc (microl/l) 32,Volume conc (microl/l) 33,Volume conc (microl/l) 34,Volume conc (microl/l) 35,Volume conc (microl/l) 36,TVC_recal,Laser transmission Sensor [mW],Supply voltage in calibrated units [V],External Auxiliary input 1 in calibrated units [mW],Laser Reference sensor in calibrated units [mW],Depth in calibrated units [m],Temperature in calibrated units [C],year,Month,day,hour,minute,second,DATE,TIME,DATE  & Time (format gps),External Auxiliary input 2 in calibrated units [mW],Sauter Mean Diameter [?],Total Volume Concentration [ppm],Relative Humidity [%],Accelerometer X [counts],Accelerometer Y [counts],Accelerometer Z [counts],Raw pressure (most sign bit),Raw pressure (least sign 16 bits),Ambient light (counts),Not used,Computed optical transmission over path,Beam-attenuation (c) [m-1].,Current Time,Latitude_ship,Longitude_ship,Speed Over Ground,GPSfix,Row Labels,Average of Salinity,Average of Temperature_C,Average of Turbidity_NTU,Average of Depth_m,Average of Chlorohyll_ug_L,Time,VPR lat,VPR long,VPR depth,majoraxis,minoraxis,angle,devz,linename
0,0,0.0039,0.0276,0.0878,0.0717,0.0229,0.0105,0.0152,0.0236,0.0319,0.0447,0.056,0.0614,0.0508,0.0339,0.0205,0.0163,0.0152,0.0224,0.0327,0.0869,0.3369,1.3728,3.3847,4.6341,4.1013,3.3014,3.1393,3.5704,4.3172,4.8755,4.4092,2.6291,0.7909,0.1511,28.894,1.0083,11.15,0.07,0.9998,0.14,-5,2021,7,9,9,48,10,7/9/2021,9:48:10 AM,7/09/2021 9:48:10,6.554,142.06,41.7498,47,2366,2715,3209,0,23236,5348,0,0.852,6.4,9:48:10 AM,51.27717687,2.6139415,0.2,RTK       ,,,,,,,,,,,,,,,
0,0,0,0,0.0221,0.0718,0.0172,0.0062,0.0186,0.0527,0.0611,0.0641,0.0633,0.0645,0.0484,0.0286,0.0139,0.0103,0.0079,0.0115,0.0166,0.0488,0.2407,1.2556,3.2503,4.5261,3.9894,3.2164,3.1336,3.676,4.4313,4.5749,3.2823,1.258,0.1818,0.0118,28.347,1.009,11.15,0.075,0.9998,0.13,-5,2021,7,9,9,48,11,7/9/2021,9:48:11 AM,7/09/2021 9:48:11,6.554,134.69,37.6556,47,2369,2712,3199,0,23234,5373,0,0.853,6.373,9:48:11 AM,51.27717705,2.613943,0.3,RTK       ,,,,,,,,,,,,,,,
0,0,0,0.0016,0.037,0.0745,0.0197,0.0079,0.0191,0.0449,0.0547,0.0628,0.0644,0.064,0.0479,0.029,0.0151,0.0114,0.0092,0.0136,0.0196,0.0565,0.2625,1.2829,3.3032,4.5824,4.0352,3.257,3.1788,3.7338,4.5208,4.7761,3.6412,1.5875,0.2898,0.0271,28.8095,1.0056,11.14,0.075,1.0004,0.12,-5,2021,7,9,9,48,12,7/9/2021,9:48:12 AM,7/09/2021 9:48:12,6.554,136.89,39.1313,47,2366,2710,3208,0,23233,5279,0,0.849,6.532,9:48:12 AM,51.27717678,2.61394517,0.4,RTK       ,,,,,,,,,,,,,,,
0,0,0,0.0094,0.0685,0.0769,0.0206,0.0083,0.015,0.0284,0.0385,0.0517,0.061,0.064,0.0486,0.0293,0.0159,0.0122,0.0109,0.0166,0.0249,0.0709,0.306,1.3668,3.4128,4.6326,4.0477,3.2457,3.1085,3.5843,4.3903,4.9037,4.1806,2.1906,0.5346,0.0758,28.7663,1.0083,11.15,0.075,0.9998,0.14,-5,2021,7,9,9,48,13,7/9/2021,9:48:13 AM,7/09/2021 9:48:13,6.554,140.03,40.6517,47,2364,2715,3221,0,23235,5450,0,0.852,6.4,9:48:13 AM,51.27717578,2.61394733,0.4,RTK       ,,,,,,,,,,,,,,,
0,0,0,0.0015,0.0354,0.0763,0.0205,0.0081,0.0195,0.0454,0.0536,0.0593,0.0606,0.0606,0.0458,0.0281,0.0147,0.0112,0.0092,0.0136,0.0198,0.0578,0.2723,1.3339,3.3742,4.5789,3.9742,3.1863,3.0891,3.6159,4.4008,4.7265,3.6962,1.6544,0.308,0.0289,28.4666,1.009,11.14,0.075,0.9998,0.14,-5,2021,7,9,9,48,14,7/9/2021,9:48:14 AM,7/09/2021 9:48:14,6.554,136.85,38.8805,47,2367,2716,3204,0,23236,5572,0,0.853,6.373,9:48:14 AM,51.27717517,2.61394933,0.2,RTK       ,,,,,,,,,,,,,,,
0,0,0,0.0033,0.0496,0.077,0.0189,0.0072,0.0155,0.0343,0.0438,0.0556,0.0631,0.066,0.05,0.0296,0.0152,0.0113,0.0095,0.0141,0.0208,0.0601,0.2759,1.329,3.3988,4.6207,3.9795,3.1605,3.0552,3.5993,4.4577,4.9072,3.9617,1.8464,0.3656,0.0381,28.5215,1.0117,11.15,0.075,1.0004,0.14,-5,2021,7,9,9,48,15,7/9/2021,9:48:15 AM,7/09/2021 9:48:15,6.554,138.53,39.6405,47,2371,2713,3199,0,23236,5602,0,0.855,6.288,9:48:15 AM,51.27717515,2.61395083,0.2,RTK       ,,,,,,,,,,,,,,,
0,0,0,0.0042,0.0529,0.0752,0.0184,0.0072,0.0155,0.0342,0.044,0.0562,0.0633,0.0662,0.0505,0.0303,0.0158,0.0117,0.0096,0.014,0.02,0.057,0.263,1.2978,3.4238,4.7458,4.0917,3.2013,3.0341,3.5263,4.3402,4.784,3.9325,1.9248,0.4149,0.0479,28.5702,1.0097,11.14,0.075,1.0009,0.14,-5,2021,7,9,9,48,16,7/9/2021,9:48:16 AM,7/09/2021 9:48:16,6.554,138.17,39.6744,47,2369,2713,3209,0,23236,5611,0,0.852,6.392,9:48:16 AM,51.2771747,2.61395217,0.3,RTK       ,,,,,,,,,,,,,,,
0,0,0,0.003,0.0463,0.0758,0.0201,0.0082,0.0179,0.0388,0.0492,0.0584,0.0628,0.064,0.0483,0.0289,0.015,0.0112,0.0093,0.0139,0.0205,0.0599,0.2786,1.3389,3.3945,4.5988,3.9753,3.1703,3.077,3.6246,4.4646,4.8935,3.976,1.891,0.3844,0.0409,28.5741,1.009,11.14,0.075,0.9998,0.12,-5,2021,7,9,9,48,17,7/9/2021,9:48:17 AM,7/09/2021 9:48:17,6.554,138.7,39.7601,47,2365,2713,3212,0,23233,5620,0,0.853,6.373,9:48:17 AM,51.27717425,2.61395467,0.4,RTK       ,,,,,,,,,,,,,,,
0,0,0,0.0038,0.0497,0.0738,0.0195,0.0082,0.0175,0.0379,0.0482,0.0588,0.0632,0.063,0.0466,0.0276,0.0146,0.0112,0.0097,0.0146,0.0216,0.062,0.282,1.3402,3.3955,4.6161,4.0304,3.2457,3.142,3.6555,4.4296,4.7816,3.8619,1.8631,0.3933,0.0442,28.7885,1.0083,11.14,0.075,0.9998,0.12,-5,2021,7,9,9,48,18,7/9/2021,9:48:18 AM,7/09/2021 9:48:18,6.554,138.04,39.7327,47,2364,2715,3211,0,23233,5626,0,0.852,6.4,9:48:18 AM,51.27717387,2.61395717,0.2,RTK       ,,,,,,,,,,,,,,,
0,0,0,0.0036,0.0502,0.076,0.0194,0.0077,0.0168,0.0368,0.0463,0.0569,0.0621,0.0632,0.048,0.0288,0.015,0.0112,0.0094,0.0139,0.0204,0.0586,0.2705,1.3121,3.3823,4.6566,4.068,3.2498,3.1205,3.6157,4.3713,4.6858,3.7618,1.8026,0.3777,0.042,28.6911,1.0104,11.13,0.075,0.9998,0.14,-5,2021,7,9,9,48,19,7/9/2021,9:48:19 AM,7/09/2021 9:48:19,6.554,137.37,39.3606,47,2368,2716,3210,0,23235,5638,0,0.854,6.319,9:48:19 AM,51.27717345,2.6139585,0.4,RTK       ,,,,,,,,,,,,,,,
0,0,0,0.0032,0.046,0.0764,0.0212,0.0088,0.0185,0.0386,0.0463,0.0537,0.0573,0.0585,0.0453,0.0284,0.0157,0.0123,0.0106,0.0155,0.0226,0.0637,0.2863,1.3453,3.3704,4.5846,4.0315,3.2606,3.1524,3.6615,4.4195,4.7016,3.6793,1.6916,0.3393,0.0367,28.7547,1.0117,11.13,0.075,1.0004,0.14,-5,2021,7,9,9,48,20,7/9/2021,9:48:20 AM,7/09/2021 9:48:20,6.554,136.91,39.2034,47,2369,2714,3209,0,23235,5649,0,0.855,6.288,9:48:20 AM,51.27717302,2.61396167,0.5,RTK       ,,,,,,,,,,,,,,,
0,0,0,0.0036,0.0521,0.0742,0.0169,0.0065,0.0147,0.0342,0.0459,0.0596,0.0661,0.0667,0.0485,0.0279,0.0143,0.0107,0.0089,0.0134,0.0199,0.059,0.2814,1.3788,3.4856,4.6561,3.9797,3.1656,3.0765,3.6215,4.446,4.8431,3.8797,1.7966,0.3539,0.037,28.7343,1.0042,11.14,0.075,0.9992,0.12,-5,2021,7,9,9,48,21,7/9/2021,9:48:21 AM,7/09/2021 9:48:21,6.554,137.61,39.6449,47,2364,2713,3200,0,23233,5660,0,0.849,6.539,9:48:21 AM,51.2771727,2.61396383,0.1,RTK       ,,,,,,,,,,,,,,,
0,0,0,0.0044,0.0544,0.075,0.0181,0.0069,0.0149,0.033,0.0424,0.0556,0.0624,0.0633,0.0464,0.0269,0.0139,0.0104,0.0088,0.013,0.0191,0.0566,0.2719,1.3552,3.499,4.7383,4.0443,3.1639,3.0185,3.5422,4.3945,4.8789,4.0273,1.9463,0.4057,0.0451,28.6533,1.0063,11.12,0.075,0.9992,0.12,-5,2021,7,9,9,48,22,7/9/2021,9:48:22 AM,7/09/2021 9:48:22,6.554,138.54,39.9567,47,2367,2714,3206,0,23233,5663,0,0.851,6.458,9:48:22 AM,51.27717277,2.61396417,0.1,RTK       ,,,,,,,,,,,,,,,
0,0,0,0.0037,0.0502,0.0725,0.0178,0.0071,0.0156,0.035,0.0447,0.0568,0.0626,0.0638,0.0469,0.0267,0.0134,0.0097,0.008,0.0119,0.0175,0.0526,0.2619,1.343,3.4903,4.7181,4.0499,3.2065,3.0782,3.5964,4.3967,4.7479,3.7717,1.751,0.3523,0.0379,28.7575,1.0104,11.14,0.075,0.9998,0.13,-5,2021,7,9,9,48,23,7/9/2021,9:48:23 AM,7/09/2021 9:48:23,6.554,137.12,39.4182,47,2367,2714,3216,0,23234,5668,0,0.854,6.319,9:48:23 AM,51.27717193,2.61396583,0.5,RTK       ,,,,,,,,,,,,,,,
0,0,0,0.0042,0.051,0.0738,0.0197,0.0082,0.0169,0.0352,0.0443,0.0551,0.0609,0.0628,0.0472,0.0277,0.0143,0.0106,0.0089,0.0132,0.0193,0.0571,0.2738,1.3532,3.4782,4.7011,4.0359,3.19,3.0565,3.5711,4.3958,4.8448,4.0018,1.9741,0.4307,0.0505,28.686,1.009,11.14,0.075,0.9998,0.14,-5,2021,7,9,9,48,24,7/9/2021,9:48:24 AM,7/09/2021 9:48:24,6.554,138.7,39.9876,47,2365,2715,3214,0,23235,5680,0,0.853,6.373,9:48:24 AM,51.27717085,2.61396883,0.3,RTK       ,,,,,,,,,,,,,,,
0,0,0,0.0037,0.0506,0.0743,0.0188,0.0077,0.0166,0.0363,0.0465,0.0567,0.0616,0.0624,0.0465,0.0272,0.0141,0.0105,0.0087,0.013,0.0191,0.0569,0.2746,1.3577,3.4529,4.6465,4.0077,3.1879,3.0617,3.5964,4.4622,4.9239,4.0194,1.9167,0.3934,0.0425,28.6788,1.0063,11.14,0.075,0.9992,0.12,-5,2021,7,9,9,48,25,7/9/2021,9:48:25 AM,7/09/2021 9:48:25,6.554,138.8,39.9747,47,2372,2714,3206,0,23232,5694,0,0.851,6.458,9:48:25 AM,51.2771711,2.6139705,0.2,RTK       ,,,,,,,,,,,,,,,
0,0,0,0.0038,0.0501,0.0758,0.0197,0.0076,0.0159,0.034,0.0425,0.0544,0.0611,0.0633,0.0469,0.027,0.0136,0.01,0.0084,0.013,0.0197,0.0591,0.2819,1.3683,3.4654,4.6796,4.032,3.1973,3.0655,3.5796,4.4169,4.8905,4.0417,1.978,0.4225,0.0481,28.7124,1.0076,11.12,0.075,0.9992,0.12,-5,2021,7,9,9,48,26,7/9/2021,9:48:26 AM,7/09/2021 9:48:26,6.554,138.92,40.0931,47,2366,2714,3203,0,23233,5703,0,0.852,6.403,9:48:26 AM,51.27717157,2.613972,0.3,RTK       ,,,,,,,,,,,,,,,
0,0,0,0.0083,0.0668,0.0779,0.0204,0.0082,0.0153,0.0294,0.0382,0.0507,0.06,0.0641,0.0504,0.0312,0.0171,0.0131,0.0114,0.0167,0.0243,0.0678,0.2934,1.3332,3.3777,4.6475,4.0793,3.2652,3.1307,3.6208,4.4008,4.8297,4.043,2.0799,0.4918,0.0662,28.8199,1.0104,11.13,0.075,0.9992,0.12,-5,2021,7,9,9,48,27,7/9/2021,9:48:27 AM,7/09/2021 9:48:27,6.554,139.27,40.3305,47,2359,2713,3212,0,23233,5595,0,0.854,6.295,9:48:27 AM,51.27717093,2.61397467,0.5,RTK       ,,,,,,,,,,,,,,,
0,0,0,0.0017,0.0393,0.0782,0.0198,0.0076,0.0179,0.0418,0.0512,0.058,0.0609,0.0619,0.0473,0.0288,0.0149,0.0113,0.0093,0.0139,0.0204,0.0584,0.2658,1.282,3.297,4.5876,4.0357,3.2421,3.1469,3.6957,4.5065,4.7962,3.6661,1.5856,0.2832,0.0256,28.7019,1.0076,11.13,0.075,0.9998,0.12,-5,2021,7,9,9,48,28,7/9/2021,9:48:28 AM,7/09/2021 9:48:28,6.554,137.01,39.0584,47,2367,2715,3214,0,23233,5646,0,0.852,6.427,9:48:28 AM,51.27716965,2.6139775,0.3,RTK       ,,,,,,,,,,,,,,,
0,0,0,0.0026,0.0453,0.079,0.0203,0.0077,0.0168,0.0372,0.0455,0.0555,0.0613,0.0649,0.0508,0.0315,0.0167,0.0128,0.0108,0.0162,0.024,0.067,0.2875,1.302,3.2603,4.5289,4.021,3.2498,3.1545,3.6907,4.5025,4.8358,3.7917,1.7312,0.3385,0.0347,28.6631,1.0104,11.13,0.075,1.0004,0.14,-5,2021,7,9,9,48,29,7/9/2021,9:48:29 AM,7/09/2021 9:48:29,6.554,137.96,39.395,47,2376,2716,3202,0,23236,5707,0,0.853,6.342,9:48:29 AM,51.27716963,2.61397883,0.1,RTK       ,,,,,,,,,,,,,,,
0,0,0,0.0032,0.046,0.0768,0.0219,0.0094,0.0201,0.0425,0.052,0.0588,0.0599,0.0587,0.0448,0.0286,0.0164,0.0133,0.0119,0.0178,0.0263,0.0715,0.2983,1.3265,3.3169,4.5898,4.0557,3.2658,3.1505,3.6608,4.4457,4.7822,3.776,1.7432,0.3508,0.0381,28.7899,1.007,11.12,0.075,0.9992,0.12,-5,2021,7,9,9,48,30,7/9/2021,9:48:30 AM,7/09/2021 9:48:30,6.554,137.32,39.48,47,2363,2711,3198,0,23233,5725,0,0.851,6.431,9:48:30 AM,51.27717037,2.61397983,0.5,RTK       ,,,,,,,,,,,,,,,
0,0,0,0.003,0.0456,0.0774,0.0211,0.0086,0.0184,0.0395,0.0493,0.0581,0.0626,0.0636,0.0487,0.0301,0.0162,0.0124,0.0105,0.0156,0.0228,0.0639,0.2791,1.2945,3.3112,4.6096,4.0627,3.2623,3.1522,3.6618,4.4289,4.7578,3.7878,1.7843,0.3662,0.0401,28.7297,1.0083,11.13,0.075,0.9992,0.13,-5,2021,7,9,9,48,31,7/9/2021,9:48:31 AM,7/09/2021 9:48:31,6.554,137.66,39.4659,47,2358,2712,3217,0,23234,5738,0,0.853,6.376,9:48:31 AM,51.27716945,2.61398283,0.5,RTK       ,,,,,,,,,,,,,,,
0,0,0,0.003,0.0479,0.0775,0.0197,0.0079,0.0176,0.039,0.0494,0.0589,0.0636,0.0644,0.0485,0.0292,0.0154,0.0118,0.0101,0.0151,0.0224,0.0633,0.279,1.2984,3.3019,4.5859,4.0564,3.273,3.1665,3.6768,4.45,4.7784,3.7774,1.7473,0.3501,0.0375,28.7526,1.0076,11.13,0.075,0.9998,0.13,-5,2021,7,9,9,48,32,7/9/2021,9:48:32 AM,7/09/2021 9:48:32,6.554,137.59,39.4435,47,2368,2719,3217,0,23234,5751,0,0.852,6.427,9:48:32 AM,51.27716857,2.613986,0.2,RTK       ,,,,,,,,,,,,,,,
0,0,0,0.003,0.0464,0.0769,0.0206,0.0085,0.0185,0.0402,0.0503,0.0594,0.063,0.0626,0.0466,0.0278,0.0146,0.0111,0.0094,0.0143,0.0214,0.0622,0.2811,1.3178,3.3348,4.5798,4.0111,3.2298,3.1443,3.6977,4.52,4.8721,3.8552,1.7904,0.3618,0.0391,28.7732,1.0063,11.12,0.075,0.9998,0.13,-5,2021,7,9,9,48,33,7/9/2021,9:48:33 AM,7/09/2021 9:48:33,6.554,138.21,39.6917,47,2376,2716,3196,0,23234,5776,0,0.85,6.481,9:48:33 AM,51.27716892,2.61398667,0.2,RTK       ,,,,,,,,,,,,,,,
0,0,0,0.0027,0.0455,0.0772,0.0201,0.0081,0.0181,0.0401,0.0496,0.0588,0.0633,0.0652,0.0505,0.0312,0.0168,0.0129,0.0109,0.0163,0.024,0.0669,0.2913,1.3325,3.3357,4.5986,4.0546,3.261,3.1453,3.6653,4.4845,4.8712,3.8791,1.7831,0.3471,0.0353,28.847,1.0035,11.13,0.075,0.9992,0.12,-5,2021,7,9,9,48,34,7/9/2021,9:48:34 AM,7/09/2021 9:48:34,6.554,137.82,39.7629,47,2372,2709,3205,0,23233,5798,0,0.849,6.566,9:48:34 AM,51.2771687,2.6139885,0.5,RTK       ,,,,,,,,,,,,,,,
0,0,0,0.0041,0.0519,0.0767,0.0202,0.0083,0.0175,0.0373,0.047,0.0579,0.064,0.0657,0.0505,0.0306,0.0161,0.012,0.01,0.015,0.0222,0.0636,0.2842,1.3237,3.3613,4.6234,4.0421,3.2307,3.1124,3.6256,4.4343,4.8436,3.9439,1.9069,0.4034,0.0458,28.7083,1.0049,11.12,0.075,0.9992,0.12,-5,2021,7,9,9,48,35,7/9/2021,9:48:35 AM,7/09/2021 9:48:35,6.554,138.43,39.852,47,2361,2715,3216,0,23232,5798,0,0.85,6.512,9:48:35 AM,51.27716787,2.61399167,0.5,RTK       ,,,,,,,,,,,,,,,
0,0,0,0.0031,0.0458,0.076,0.0212,0.0089,0.0192,0.0411,0.0499,0.0577,0.0602,0.0597,0.0451,0.0278,0.015,0.0116,0.0099,0.0149,0.022,0.062,0.2729,1.2784,3.2973,4.6191,4.0904,3.2962,3.1795,3.6614,4.374,4.6556,3.6811,1.7213,0.3512,0.0386,28.7203,1.0117,11.13,0.075,0.9992,0.12,-5,2021,7,9,9,48,36,7/9/2021,9:48:36 AM,7/09/2021 9:48:36,6.554,137.06,39.1684,47,2361,2718,3207,0,23233,5808,0,0.856,6.241,9:48:36 AM,51.27716782,2.61399383,0.1,RTK       ,,,,,,,,,,,,,,,
0,0,0,0.0025,0.0465,0.0784,0.0187,0.007,0.0162,0.0371,0.0467,0.0561,0.0607,0.0628,0.0487,0.0298,0.0156,0.0118,0.0099,0.0149,0.0221,0.0626,0.2776,1.2989,3.2951,4.5622,4.0089,3.2191,3.1304,3.677,4.4736,4.7605,3.6973,1.6715,0.3215,0.0321,28.5909,1.0117,11.12,0.075,0.9998,0.13,-5,2021,7,9,9,48,37,7/9/2021,9:48:37 AM,7/09/2021 9:48:37,6.554,137.36,39.074,47,2370,2715,3207,0,23234,5818,0,0.855,6.264,9:48:37 AM,51.27716823,2.61399483,0.4,RTK       ,,,,,,,,,,,,,,,
0,0,0,0.0041,0.0518,0.076,0.0198,0.0079,0.0163,0.0344,0.0442,0.0558,0.0626,0.0655,0.0514,0.0319,0.0172,0.0131,0.0112,0.0166,0.0245,0.0684,0.2958,1.3408,3.3558,4.601,4.0268,3.2184,3.0949,3.6011,4.4086,4.8158,3.9055,1.8763,0.3955,0.0451,28.6159,1.0083,11.12,0.075,0.9998,0.12,-5,2021,7,9,9,48,38,7/9/2021,9:48:38 AM,7/09/2021 9:48:38,6.554,138.16,39.6543,47,2366,2712,3204,0,23233,5830,0,0.852,6.4,9:48:38 AM,51.27716763,2.61399733,0.5,RTK       ,,,,,,,,,,,,,,,
0,0,0,0.0029,0.048,0.0765,0.0185,0.0072,0.0161,0.0367,0.0474,0.0593,0.0648,0.0657,0.049,0.0288,0.0148,0.0111,0.0091,0.0135,0.0197,0.0569,0.2649,1.3029,3.3919,4.6881,4.0716,3.2349,3.1125,3.6149,4.3791,4.7264,3.8065,1.7965,0.3594,0.037,28.7068,1.0049,11.13,0.075,0.9992,0.12,-5,2021,7,9,9,48,39,7/9/2021,9:48:39 AM,7/09/2021 9:48:39,6.554,137.41,39.4328,47,2365,2715,3211,0,23232,5848,0,0.85,6.512,9:48:39 AM,51.27716692,2.61400067,0.4,RTK       ,,,,,,,,,,,,,,,
0,0,0,0.005,0.054,0.0733,0.0193,0.0079,0.0164,0.0346,0.0433,0.0555,0.0619,0.0635,0.0473,0.0275,0.0139,0.0102,0.0084,0.0127,0.0188,0.0559,0.268,1.3303,3.4557,4.7158,4.0718,3.2154,3.0627,3.5533,4.3545,4.798,3.9927,2.0113,0.452,0.0553,28.6569,1.0104,11.12,0.075,0.9992,0.12,-5,2021,7,9,9,48,40,7/9/2021,9:48:40 AM,7/09/2021 9:48:40,6.554,138.78,39.9663,47,2370,2716,3213,0,23233,5852,0,0.854,6.295,9:48:40 AM,51.27716688,2.61400283,0.3,RTK       ,,,,,,,,,,,,,,,
0,0,0,0.0039,0.0519,0.0734,0.018,0.0072,0.0155,0.0341,0.0443,0.056,0.062,0.0635,0.0472,0.0272,0.0139,0.0102,0.0084,0.0124,0.0181,0.0537,0.262,1.3305,3.4793,4.7489,4.0752,3.2031,3.0522,3.5599,4.3707,4.7805,3.8977,1.8722,0.389,0.0427,28.7027,1.0076,11.12,0.075,0.9992,0.12,-5,2021,7,9,9,48,41,7/9/2021,9:48:41 AM,7/09/2021 9:48:41,6.554,137.87,39.6847,47,2365,2713,3199,0,23233,5862,0,0.852,6.403,9:48:41 AM,51.27716707,2.6140035,0.2,RTK       ,,,,,,,,,,,,,,,
0,0,0,0.0036,0.049,0.076,0.02,0.0081,0.0172,0.0368,0.045,0.0549,0.0595,0.0604,0.045,0.0262,0.0133,0.0097,0.0078,0.0116,0.0171,0.0525,0.2653,1.3665,3.5348,4.725,4.0016,3.1415,3.0192,3.5478,4.3645,4.7482,3.8222,1.8135,0.3736,0.0411,28.5799,1.009,11.13,0.075,0.9998,0.12,-5,2021,7,9,9,48,42,7/9/2021,9:48:42 AM,7/09/2021 9:48:42,6.554,137.32,39.3782,47,2364,2714,3214,0,23233,5867,0,0.853,6.373,9:48:42 AM,51.27716682,2.614006,0.5,RTK       ,,,,,,,,,,,,,,,
0,0,0,0.0041,0.0506,0.0754,0.0202,0.0081,0.0166,0.035,0.0436,0.0547,0.0602,0.0615,0.0456,0.0269,0.014,0.0106,0.0091,0.0138,0.0205,0.0604,0.2853,1.384,3.4903,4.6727,4.0046,3.1714,3.0424,3.5664,4.3996,4.8106,3.9061,1.8841,0.4004,0.0462,28.6476,1.009,11.12,0.075,0.9986,0.11,-5,2021,7,9,9,48,43,7/9/2021,9:48:43 AM,7/09/2021 9:48:43,6.554,137.98,39.6947,47,2367,2716,3220,0,23231,5865,0,0.854,6.326,9:48:43 AM,51.27716637,2.614009,0.3,RTK       ,,,,,,,,,,,,,,,
0,0,0,0.0039,0.0524,0.0759,0.0188,0.0075,0.0159,0.0341,0.043,0.0536,0.0598,0.0621,0.0471,0.0276,0.0141,0.0103,0.0084,0.0123,0.018,0.0539,0.2654,1.3452,3.4838,4.714,4.0395,3.1763,3.0253,3.5413,4.3923,4.8572,3.9629,1.8865,0.3849,0.0415,28.6018,1.0097,11.12,0.075,0.9992,0.13,-5,2021,7,9,9,48,44,7/9/2021,9:48:44 AM,7/09/2021 9:48:44,6.554,138.25,39.7346,47,2369,2714,3200,0,23234,5873,0,0.854,6.322,9:48:44 AM,51.27716617,2.61401083,0.2,RTK       ,,,,,,,,,,,,,,,
0,0,0,0.0033,0.0478,0.0758,0.0198,0.008,0.0173,0.0381,0.0475,0.0588,0.0626,0.0604,0.0419,0.0233,0.0117,0.0087,0.0073,0.011,0.0163,0.0502,0.2566,1.3452,3.5117,4.7173,4.0186,3.1719,3.0393,3.5468,4.3382,4.7229,3.7976,1.7848,0.361,0.0388,28.5554,1.0104,11.12,0.075,1.0004,0.12,-5,2021,7,9,9,48,45,7/9/2021,9:48:45 AM,7/09/2021 9:48:45,6.554,137.17,39.2602,47,2368,2714,3199,0,23232,5881,0,0.853,6.342,9:48:45 AM,51.27716605,2.61401283,0.2,RTK       ,,,,,,,,,,,,,,,
0,0,0,0.0049,0.0554,0.075,0.019,0.0075,0.0152,0.0321,0.0417,0.0546,0.0618,0.0637,0.0478,0.028,0.0144,0.0105,0.0086,0.0127,0.0185,0.0557,0.2735,1.3695,3.5124,4.7374,4.0735,3.2144,3.0644,3.5793,4.4028,4.7934,3.8629,1.8408,0.3878,0.0446,28.8543,1.0049,11.12,0.075,0.9998,0.11,-5,2021,7,9,9,48,46,7/9/2021,9:48:46 AM,7/09/2021 9:48:46,6.554,137.5,39.7836,47,2366,2713,3213,0,23231,5852,0,0.849,6.535,9:48:46 AM,51.27716623,2.61401533,0.4,RTK       ,,,,,,,,,,,,,,,
0,0,0,0.0041,0.0527,0.0762,0.0193,0.0078,0.0168,0.0361,0.0446,0.0541,0.0581,0.0571,0.0409,0.0233,0.012,0.009,0.0077,0.0118,0.0178,0.0541,0.2679,1.3576,3.5118,4.7628,4.096,3.2292,3.0678,3.544,4.3002,4.6374,3.7148,1.7683,0.3719,0.0424,28.7408,1.0083,11.12,0.075,0.9998,0.12,-5,2021,7,9,9,48,47,7/9/2021,9:48:47 AM,7/09/2021 9:48:47,6.554,136.59,39.2755,47,2364,2715,3217,0,23232,5846,0,0.852,6.4,9:48:47 AM,51.27716642,2.614018,0.4,RTK       ,,,,,,,,,,,,,,,
0.0078,0.023,0.0425,0.0663,0.0686,0.0393,0.0182,0.0115,0.0134,0.0178,0.0264,0.042,0.0552,0.0585,0.0444,0.0276,0.0167,0.0133,0.0135,0.021,0.0322,0.0892,0.355,1.4531,3.6443,4.9132,4.2235,3.2856,3.0159,3.3567,4.0538,4.7267,4.7427,3.4834,1.4765,0.4537,29.0495,1.0076,11.13,0.075,0.9998,0.11,-5,2021,7,9,9,48,48,7/9/2021,9:48:48 AM,7/09/2021 9:48:48,6.554,145.83,43.9322,47,2367,2716,3203,0,23231,5503,0,0.852,6.427,9:48:48 AM,51.27716593,2.6140205,0.4,RTK       ,,,,,,,,,,,,,,,
0.0111,0.0306,0.053,0.0759,0.0709,0.0374,0.0168,0.0106,0.0119,0.0151,0.0228,0.0367,0.0504,0.0567,0.0461,0.0297,0.018,0.0141,0.0139,0.0213,0.0323,0.0899,0.3613,1.4827,3.7125,4.9456,4.1771,3.189,2.9009,3.2464,4.0017,4.8025,4.9301,3.6514,1.5356,0.4625,28.7824,1.009,11.12,0.075,0.9992,0.12,-5,2021,7,9,9,48,49,7/9/2021,9:48:49 AM,7/09/2021 9:48:49,6.554,146.42,44.1644,47,2366,2714,3200,0,23232,5184,0,0.853,6.349,9:48:49 AM,51.27716538,2.61402217,0.2,RTK       ,,,,,,,,,,,,,,,
0,0,0,0.0022,0.0413,0.0717,0.0181,0.0073,0.0169,0.0388,0.0476,0.057,0.061,0.0612,0.0437,0.0237,0.0112,0.0079,0.0061,0.0091,0.0134,0.0427,0.2365,1.3395,3.6038,4.8155,4.0048,3.0904,2.947,3.5063,4.4288,4.9351,3.9738,1.7981,0.3345,0.0315,28.5535,1.007,11.12,0.075,0.9998,0.12,-5,2021,7,9,9,48,50,7/9/2021,9:48:50 AM,7/09/2021 9:48:50,6.554,138,39.6266,47,2367,2715,3218,0,23232,5358,0,0.851,6.454,9:48:50 AM,51.2771658,2.61402383,0.3,RTK       ,,,,,,,,,,,,,,,
0,0,0,0.0011,0.0333,0.0721,0.0173,0.0067,0.017,0.0418,0.0495,0.0557,0.0581,0.0584,0.0414,0.0222,0.0102,0.0072,0.0055,0.0083,0.0124,0.0409,0.2344,1.3372,3.5109,4.7082,4.0155,3.1633,3.0262,3.5659,4.4194,4.777,3.6674,1.5452,0.2588,0.0208,28.5401,1.009,11.12,0.075,0.9998,0.12,-5,2021,7,9,9,48,51,7/9/2021,9:48:51 AM,7/09/2021 9:48:51,6.554,136.51,38.8098,47,2374,2714,3215,0,23232,5323,0,0.853,6.373,9:48:51 AM,51.27716613,2.6140265,0.5,RTK       ,,,,,,,,,,,,,,,
0,0,0,0.0036,0.0501,0.0729,0.0178,0.0072,0.0156,0.0344,0.0433,0.0539,0.0589,0.0588,0.042,0.0232,0.0115,0.0085,0.007,0.0106,0.0157,0.0492,0.2583,1.3692,3.5603,4.779,4.0744,3.1848,3.0051,3.5005,4.3117,4.6994,3.7618,1.7592,0.3556,0.038,28.6275,1.0097,11.12,0.075,0.9992,0.12,-5,2021,7,9,9,48,52,7/9/2021,9:48:52 AM,7/09/2021 9:48:52,6.554,136.78,39.2413,47,2371,2712,3201,0,23233,5655,0,0.854,6.322,9:48:52 AM,51.27716582,2.6140285,0.1,RTK       ,,,,,,,,,,,,,,,
0,0,0,0.0066,0.0619,0.0708,0.0169,0.0071,0.0147,0.0308,0.0391,0.0502,0.0568,0.0576,0.0412,0.0224,0.0111,0.0081,0.0068,0.0106,0.0161,0.0516,0.2764,1.4543,3.6992,4.8096,4.0308,3.1421,2.973,3.4912,4.3737,4.9017,4.0692,1.9771,0.4205,0.0487,28.8307,1.0035,11.12,0.075,0.9998,0.12,-5,2021,7,9,9,48,53,7/9/2021,9:48:53 AM,7/09/2021 9:48:53,6.554,138.25,40.2479,47,2360,2717,3210,0,23232,5654,0,0.848,6.59,9:48:53 AM,51.27716535,2.61402967,0.3,RTK       ,,,,,,,,,,,,,,,
0,0,0,0.0064,0.0557,0.0676,0.0186,0.0085,0.0168,0.0333,0.0409,0.0507,0.0551,0.0544,0.0384,0.0211,0.0106,0.0079,0.0068,0.0107,0.0167,0.0529,0.2761,1.4236,3.639,4.8071,4.0808,3.1967,2.9961,3.4647,4.2847,4.7806,4.0422,2.0543,0.4685,0.0587,28.7419,1.0097,11.13,0.075,0.9998,0.1,-5,2021,7,9,9,48,54,7/9/2021,9:48:54 AM,7/09/2021 9:48:54,6.554,138.51,40.1463,47,2364,2716,3217,0,23229,5627,0,0.853,6.346,9:48:54 AM,51.27716542,2.61403333,0.7,RTK       ,,,,,,,,,,,,,,,
0,0,0,0.0059,0.0569,0.0697,0.018,0.0077,0.0154,0.0312,0.0378,0.0476,0.0532,0.0546,0.0393,0.0213,0.0104,0.0076,0.0064,0.0101,0.0158,0.0513,0.2763,1.4431,3.6566,4.8164,4.0927,3.1765,2.9315,3.3801,4.2283,4.7873,4.0827,2.0654,0.4581,0.0543,28.5617,1.0097,11.12,0.075,0.9998,0.1,-5,2021,7,9,9,48,55,7/9/2021,9:48:55 AM,7/09/2021 9:48:55,6.554,138.47,40.0093,47,2368,2713,3209,0,23229,5623,0,0.853,6.346,9:48:55 AM,51.27716557,2.614037,0.3,RTK       ,,,,,,,,,,,,,,,
0,0,0,0.0039,0.0485,0.0706,0.0185,0.0078,0.0165,0.0346,0.0402,0.0491,0.0545,0.0568,0.0418,0.0236,0.0117,0.0086,0.0071,0.0108,0.0161,0.0515,0.2756,1.4422,3.6197,4.7695,4.1092,3.2538,3.0256,3.4475,4.229,4.6826,3.8676,1.8634,0.3867,0.0424,28.7443,1.007,11.12,0.075,0.9998,0.12,-5,2021,7,9,9,48,56,7/9/2021,9:48:56 AM,7/09/2021 9:48:56,6.554,136.99,39.5868,47,2371,2713,3202,0,23232,5624,0,0.851,6.454,9:48:56 AM,51.27716607,2.61403783,0.1,RTK       ,,,,,,,,,,,,,,,
0,0,0,0.0036,0.0464,0.0696,0.0186,0.008,0.0171,0.036,0.0422,0.0506,0.0544,0.0542,0.038,0.0207,0.0103,0.0078,0.0067,0.0106,0.0165,0.0528,0.2776,1.4297,3.5872,4.7609,4.1098,3.236,2.9976,3.4377,4.2611,4.7423,3.8971,1.8578,0.3812,0.0414,28.6617,1.0104,11.12,0.075,0.9998,0.11,-5,2021,7,9,9,48,57,7/9/2021,9:48:57 AM,7/09/2021 9:48:57,6.554,137.35,39.5813,47,2367,2715,3209,0,23231,5885,0,0.854,6.319,9:48:57 AM,51.27716618,2.61403933,0.4,RTK       ,,,,,,,,,,,,,,,
0,0,0,0.0057,0.055,0.0697,0.0186,0.008,0.0156,0.0308,0.0381,0.0478,0.0538,0.0562,0.0419,0.0238,0.0121,0.0089,0.0075,0.0114,0.017,0.0529,0.2717,1.3878,3.5471,4.7809,4.1572,3.2734,3.0154,3.4144,4.2024,4.7351,4.0606,2.098,0.4832,0.06,28.6251,1.0104,11.12,0.075,0.9998,0.12,-5,2021,7,9,9,48,58,7/9/2021,9:48:58 AM,7/09/2021 9:48:58,6.554,138.79,40.0618,47,2365,2716,3215,0,23232,5928,0,0.854,6.319,9:48:58 AM,51.2771655,2.614043,0.5,RTK       ,,,,,,,,,,,,,,,
0,0,0,0.0046,0.0547,0.0715,0.0171,0.0069,0.0144,0.0306,0.0379,0.0489,0.057,0.0614,0.0458,0.0252,0.012,0.0085,0.0067,0.0102,0.0152,0.0486,0.2594,1.3663,3.5269,4.7872,4.1694,3.2857,3.0494,3.4965,4.3102,4.7472,3.8497,1.8173,0.3729,0.0411,28.8282,1.0076,11.12,0.075,0.9998,0.11,-5,2021,7,9,9,48,59,7/9/2021,9:48:59 AM,7/09/2021 9:48:59,6.554,137.3,39.6564,47,2365,2714,3202,0,23231,5950,0,0.852,6.427,9:48:59 AM,51.27716503,2.61404467,0.1,RTK       ,,,,,,,,,,,,,,,
0,0,0,0.0048,0.0531,0.0715,0.019,0.0083,0.0171,0.0347,0.0417,0.0494,0.0532,0.0536,0.0393,0.0223,0.0112,0.0082,0.0068,0.0104,0.0156,0.0498,0.2657,1.4011,3.5992,4.7847,4.1218,3.2748,3.0792,3.5413,4.3345,4.7277,3.8052,1.802,0.3766,0.0428,28.9723,1.007,11.12,0.075,0.9992,0.12,-5,2021,7,9,9,49,0,7/9/2021,9:49:00 AM,7/09/2021 9:49:00,6.554,137.01,39.7264,47,2370,2713,3214,0,23232,5953,0,0.851,6.431,9:49:00 AM,51.27716597,2.61404483,0.4,RTK       ,,,,,,,,,,,,,,,
0,0,0,0.0066,0.0573,0.0697,0.019,0.0084,0.0163,0.0321,0.0398,0.0502,0.056,0.0576,0.0423,0.0239,0.0121,0.0089,0.0074,0.0112,0.0166,0.0514,0.2645,1.3663,3.5392,4.7985,4.2065,3.3591,3.1242,3.5151,4.231,4.6412,3.9007,2.0089,0.4702,0.061,28.9912,1.0076,11.11,0.075,0.9992,0.1,-5,2021,7,9,9,49,1,7/9/2021,9:49:01 AM,7/09/2021 9:49:01,6.554,137.88,40.073,47,2371,2714,3215,0,23230,5953,0,0.852,6.403,9:49:01 AM,51.27716663,2.61404783,0.6,RTK       ,,,,,,,,,,,,,,,
0,0,0,0.0038,0.0488,0.0746,0.0203,0.0082,0.0166,0.0334,0.0392,0.0486,0.0552,0.0584,0.0427,0.0238,0.0117,0.0085,0.007,0.0105,0.0156,0.0499,0.2672,1.4044,3.5731,4.775,4.1239,3.2378,3.002,3.4396,4.2577,4.7574,3.9492,1.9225,0.4072,0.0456,28.6575,1.0097,11.12,0.075,0.9992,0.1,-5,2021,7,9,9,49,2,7/9/2021,9:49:02 AM,7/09/2021 9:49:02,6.554,137.75,39.7398,47,2367,2715,3202,0,23230,5956,0,0.854,6.322,9:49:02 AM,51.2771658,2.61405183,0.4,RTK       ,,,,,,,,,,,,,,,
0,0,0,0.0049,0.0557,0.0711,0.017,0.0068,0.0142,0.0302,0.0378,0.0488,0.0556,0.058,0.0425,0.0237,0.0117,0.0086,0.0071,0.0107,0.0161,0.0506,0.2663,1.3929,3.5735,4.8004,4.1608,3.2811,3.0332,3.4429,4.2194,4.6775,3.8794,1.9023,0.4108,0.0478,28.7416,1.0083,11.12,0.075,0.9992,0.11,-5,2021,7,9,9,49,3,7/9/2021,9:49:03 AM,7/09/2021 9:49:03,6.554,137.35,39.6596,47,2365,2714,3208,0,23231,5956,0,0.853,6.376,9:49:03 AM,51.27716602,2.61405367,0.3,DGPS      ,,,,,,,,,,,,,,,
0,0,0,0.0062,0.0586,0.0686,0.017,0.0074,0.015,0.0311,0.0386,0.0491,0.055,0.0555,0.0392,0.0212,0.0105,0.0079,0.0067,0.0107,0.0166,0.0539,0.2861,1.4608,3.6306,4.761,4.0959,3.2444,3.0273,3.4768,4.3082,4.8068,3.9669,1.9191,0.4105,0.0481,28.8599,1.0035,11.12,0.075,0.9998,0.12,-5,2021,7,9,9,49,4,7/9/2021,9:49:04 AM,7/09/2021 9:49:04,6.554,137.75,40.0113,47,2365,2715,3211,0,23232,5956,0,0.848,6.59,9:49:04 AM,51.27716753,2.61405667,0.5,DGPS      ,,,,,,,,,,,,,,,
0,0,0,0.0057,0.059,0.0704,0.0164,0.0067,0.0138,0.0291,0.0363,0.0468,0.0528,0.0544,0.0391,0.0216,0.0109,0.0083,0.0073,0.0116,0.0181,0.0573,0.2931,1.4527,3.5763,4.7309,4.0926,3.2184,2.9642,3.3921,4.2456,4.8371,4.1289,2.0708,0.4499,0.0513,28.5315,1.007,11.12,0.075,0.9998,0.12,-5,2021,7,9,9,49,5,7/9/2021,9:49:05 AM,7/09/2021 9:49:05,6.554,138.9,40.0697,47,2368,2716,3213,0,23232,5956,0,0.851,6.454,9:49:05 AM,51.27716758,2.61405983,0.3,DGPS      ,,,,,,,,,,,,,,,
0,0,0,0.0061,0.0586,0.0677,0.0163,0.007,0.0143,0.0295,0.0368,0.0472,0.0539,0.0566,0.042,0.0237,0.0123,0.0094,0.0082,0.0129,0.02,0.0617,0.3034,1.4381,3.4779,4.6785,4.1734,3.3282,3.04,3.4286,4.2385,4.7544,3.9686,1.9302,0.4091,0.0467,28.6908,1.0056,11.1,0.075,0.9998,0.11,-5,2021,7,9,9,49,6,7/9/2021,9:49:06 AM,7/09/2021 9:49:06,6.554,137.88,39.8,47,2367,2712,3201,0,23231,5953,0,0.85,6.508,9:49:06 AM,51.27716775,2.61406067,0.1,DGPS      ,,,,,,,,,,,,,,,
0,0,0,0.0081,0.0626,0.0665,0.0168,0.0073,0.0142,0.028,0.0343,0.0455,0.0535,0.058,0.0438,0.0251,0.0132,0.0102,0.0089,0.014,0.0216,0.0653,0.3104,1.4341,3.4497,4.6326,4.1319,3.3067,3.0082,3.3567,4.1386,4.727,4.1171,2.1441,0.4968,0.0633,28.3658,1.0083,11.12,0.075,0.9992,0.11,-5,2021,7,9,9,49,7,7/9/2021,9:49:07 AM,7/09/2021 9:49:07,6.554,139.11,39.9138,47,2368,2712,3206,0,23231,5950,0,0.853,6.376,9:49:07 AM,51.27716788,2.6140625,0.4,DGPS      ,,,,,,,,,,,,,,,
0,0,0,0.0075,0.0618,0.0649,0.0159,0.0073,0.0149,0.0307,0.037,0.0461,0.0512,0.0515,0.0368,0.0204,0.0108,0.0087,0.0082,0.0139,0.0233,0.0717,0.3356,1.4882,3.457,4.5949,4.1256,3.3389,3.058,3.4239,4.2063,4.7279,3.9755,1.9507,0.4197,0.0493,28.611,1.0056,11.12,0.075,0.9998,0.11,-5,2021,7,9,9,49,8,7/9/2021,9:49:08 AM,7/09/2021 9:49:08,6.554,137.95,39.7342,47,2367,2719,3218,0,23231,5938,0,0.85,6.508,9:49:08 AM,51.27716698,2.614066,0.5,DGPS      ,,,,,,,,,,,,,,,
0,0,0,0.0101,0.0634,0.0619,0.0165,0.0079,0.015,0.0287,0.034,0.0437,0.051,0.0554,0.0432,0.0259,0.0145,0.0117,0.0109,0.0176,0.028,0.0811,0.3537,1.4869,3.3938,4.5101,4.0953,3.3532,3.0805,3.4254,4.1663,4.6401,3.917,1.9899,0.4626,0.0617,28.4857,1.0104,11.12,0.075,0.9992,0.1,-5,2021,7,9,9,49,9,7/9/2021,9:49:09 AM,7/09/2021 9:49:09,6.554,137.96,39.5569,47,2369,2716,3209,0,23230,5949,0,0.854,6.295,9:49:09 AM,51.27716652,2.614069,0.4,DGPS      ,,,,,,,,,,,,,,,
0,0,0,0.0076,0.0605,0.0676,0.0178,0.008,0.0153,0.0291,0.0345,0.043,0.0496,0.0542,0.0423,0.0255,0.0141,0.0115,0.0105,0.0167,0.0263,0.0767,0.3431,1.4865,3.44,4.575,4.109,3.3207,3.0386,3.394,4.1703,4.7147,4.0548,2.0836,0.4792,0.0607,28.488,1.0063,11.12,0.075,0.9986,0.1,-5,2021,7,9,9,49,10,7/9/2021,9:49:10 AM,7/09/2021 9:49:10,6.554,138.6,39.8811,47,2369,2711,3204,0,23230,5964,0,0.851,6.434,9:49:10 AM,51.27716722,2.6140715,0.3,DGPS      ,,,,,,,,,,,,,,,
0,0,0,0.0072,0.0626,0.0677,0.0162,0.0071,0.0143,0.0292,0.0359,0.0455,0.0521,0.0548,0.0407,0.0232,0.0122,0.0095,0.0086,0.0141,0.0227,0.0701,0.3313,1.484,3.4585,4.5725,4.0691,3.285,3.0267,3.4156,4.2244,4.7787,4.053,2.0108,0.4369,0.0517,28.4608,1.0056,11.11,0.075,0.9992,0.12,-5,2021,7,9,9,49,11,7/9/2021,9:49:11 AM,7/09/2021 9:49:11,6.554,138.54,39.7921,47,2366,2711,3209,0,23233,5960,0,0.85,6.485,9:49:11 AM,51.2771672,2.61407383,0.4,DGPS      ,,,,,,,,,,,,,,,
0,0,0,0.0093,0.0686,0.0644,0.0144,0.0062,0.0127,0.0264,0.0343,0.0458,0.0538,0.0565,0.0423,0.0246,0.0135,0.0108,0.01,0.016,0.0253,0.0756,0.3447,1.5026,3.4473,4.5261,4.0361,3.2758,3.0475,3.4801,4.3184,4.8121,3.972,1.9346,0.4241,0.052,28.5891,1.0063,11.12,0.075,0.9998,0.11,-5,2021,7,9,9,49,12,7/9/2021,9:49:12 AM,7/09/2021 9:49:12,6.554,138.24,39.784,47,2364,2718,3216,0,23231,5943,0,0.85,6.481,9:49:12 AM,51.27716678,2.61407717,0.4,DGPS      ,,,,,,,,,,,,,,,
0,0,0,0.0084,0.0622,0.0636,0.016,0.0073,0.0146,0.0296,0.0372,0.0477,0.0533,0.054,0.0389,0.022,0.0119,0.0096,0.0091,0.015,0.0247,0.0747,0.3419,1.4889,3.4305,4.5238,4.0405,3.2792,3.0418,3.4543,4.2879,4.8248,4.0381,1.9868,0.438,0.0545,28.4886,1.0076,11.12,0.075,0.9998,0.11,-5,2021,7,9,9,49,13,7/9/2021,9:49:13 AM,7/09/2021 9:49:13,6.554,138.75,39.8306,47,2366,2719,3212,0,23231,5956,0,0.852,6.427,9:49:13 AM,51.27716692,2.61408,0.3,DGPS      ,,,,,,,,,,,,,,,
0,0,0,0.0095,0.0656,0.0625,0.0152,0.007,0.0138,0.0275,0.0341,0.044,0.0509,0.0543,0.0415,0.0247,0.014,0.0116,0.0111,0.0183,0.03,0.0869,0.3706,1.5089,3.3716,4.4563,4.0245,3.2743,3.02,3.4017,4.2139,4.7528,4.0003,1.966,0.4302,0.0532,28.2643,1.007,11.12,0.075,0.9986,0.1,-5,2021,7,9,9,49,14,7/9/2021,9:49:14 AM,7/09/2021 9:49:14,6.554,138.34,39.4667,47,2372,2708,3198,0,23229,5973,0,0.852,6.407,9:49:14 AM,51.2771677,2.61408133,0.3,DGPS      ,,,,,,,,,,,,,,,
0,0,0,0.0101,0.0613,0.0633,0.0188,0.0096,0.0178,0.0326,0.0376,0.0447,0.0489,0.05,0.0378,0.0232,0.0137,0.0117,0.0113,0.0182,0.029,0.0829,0.3544,1.4703,3.3621,4.4811,4.0404,3.2744,3.0021,3.3684,4.1582,4.6997,4.0426,2.0986,0.5029,0.0707,28.1339,1.0111,11.12,0.075,0.9986,0.1,-5,2021,7,9,9,49,15,7/9/2021,9:49:15 AM,7/09/2021 9:49:15,6.554,139.04,39.5481,47,2366,2712,3211,0,23229,5964,0,0.855,6.245,9:49:15 AM,51.27716807,2.614082,0.2,DGPS      ,,,,,,,,,,,,,,,
0,0,0,0.0086,0.0628,0.0655,0.017,0.0078,0.0152,0.0294,0.0337,0.0424,0.0491,0.0541,0.043,0.0266,0.0153,0.0127,0.0119,0.0192,0.0306,0.0872,0.3701,1.5076,3.3691,4.4561,4.0072,3.2288,2.9544,3.3274,4.1409,4.7119,4.0144,2.0104,0.451,0.0573,27.9937,1.0097,11.11,0.075,0.9992,0.11,-5,2021,7,9,9,49,16,7/9/2021,9:49:16 AM,7/09/2021 9:49:16,6.554,138.37,39.2385,47,2365,2719,3221,0,23231,5956,0,0.854,6.322,9:49:16 AM,51.27716745,2.61408333,0.4,DGPS      ,,,,,,,,,,,,,,,
0,0,0,0.0069,0.0591,0.0638,0.0157,0.0073,0.0154,0.0321,0.0384,0.047,0.0514,0.0529,0.0401,0.0245,0.0142,0.0122,0.0117,0.0191,0.0306,0.0861,0.3599,1.4729,3.3308,4.4603,4.0511,3.3118,3.0717,3.4577,4.2012,4.5781,3.719,1.7688,0.3711,0.0434,28.3459,1.0097,11.11,0.075,0.9998,0.11,-5,2021,7,9,9,49,17,7/9/2021,9:49:17 AM,7/09/2021 9:49:17,6.554,136.68,38.826,47,2368,2714,3199,0,23231,5969,0,0.853,6.346,9:49:17 AM,51.27716735,2.61408567,0.5,DGPS      ,,,,,,,,,,,,,,,
0,0,0,0.0084,0.0631,0.0641,0.016,0.0074,0.0145,0.0289,0.0357,0.0456,0.0526,0.0573,0.0447,0.0268,0.0148,0.012,0.011,0.0178,0.0285,0.0831,0.3626,1.5087,3.3996,4.484,4.0209,3.2537,2.9955,3.3912,4.2304,4.8056,4.0853,2.0355,0.4515,0.0562,28.2789,1.007,11.12,0.075,0.9998,0.1,-5,2021,7,9,9,49,18,7/9/2021,9:49:18 AM,7/09/2021 9:49:18,6.554,138.76,39.7129,47,2368,2711,3207,0,23230,5974,0,0.851,6.454,9:49:18 AM,51.27716875,2.6140885,0.5,DGPS      ,,,,,,,,,,,,,,,
0,0,0,0.0072,0.0619,0.0673,0.0167,0.0075,0.0152,0.0306,0.0364,0.0447,0.0505,0.0529,0.0398,0.0233,0.0128,0.0104,0.0098,0.0162,0.0264,0.0789,0.352,1.4959,3.4044,4.5048,4.039,3.2792,3.031,3.42,4.2201,4.7332,3.9594,1.9301,0.4136,0.0485,28.3549,1.0063,11.1,0.075,0.9992,0.11,-5,2021,7,9,9,49,19,7/9/2021,9:49:19 AM,7/09/2021 9:49:19,6.554,138.01,39.4397,47,2367,2716,3219,0,23231,5970,0,0.851,6.458,9:49:19 AM,51.27716955,2.6140895,0.2,DGPS      ,,,,,,,,,,,,,,,
0,0,0,0.0084,0.0649,0.0637,0.0151,0.0068,0.0137,0.028,0.0355,0.0459,0.0531,0.0558,0.0415,0.0236,0.0127,0.0103,0.0096,0.0157,0.0254,0.0762,0.347,1.5018,3.4247,4.4956,4.0413,3.3217,3.1037,3.5219,4.3217,4.7441,3.848,1.8266,0.3861,0.0457,28.6853,1.007,11.12,0.075,0.9992,0.1,-5,2021,7,9,9,49,20,7/9/2021,9:49:20 AM,7/09/2021 9:49:20,6.554,137.5,39.5361,47,2368,2717,3204,0,23230,5977,0,0.851,6.431,9:49:20 AM,51.27716952,2.6140905,0.4,DGPS      ,,,,,,,,,,,,,,,
0,0,0,0.0075,0.0617,0.0662,0.0165,0.0075,0.0151,0.0307,0.038,0.0471,0.052,0.0521,0.0374,0.0212,0.0115,0.0095,0.0092,0.0155,0.0259,0.0784,0.356,1.527,3.4541,4.5348,4.0909,3.3521,3.1015,3.4853,4.2631,4.6962,3.8274,1.8312,0.3906,0.0467,28.7678,1.0063,11.11,0.075,0.9992,0.1,-5,2021,7,9,9,49,21,7/9/2021,9:49:21 AM,7/09/2021 9:49:21,6.554,137.02,39.5599,47,2369,2711,3204,0,23230,5989,0,0.851,6.458,9:49:21 AM,51.27716953,2.61409267,0.3,DGPS      ,,,,,,,,,,,,,,,
0,0,0,0.0066,0.0575,0.0695,0.0185,0.008,0.0154,0.03,0.0355,0.0451,0.0523,0.0561,0.0419,0.0238,0.0123,0.0095,0.0084,0.0136,0.0215,0.0669,0.3221,1.4726,3.464,4.5998,4.1376,3.376,3.1313,3.5183,4.2663,4.6515,3.7812,1.8421,0.4077,0.0504,28.8804,1.0083,11.1,0.075,0.9992,0.12,-5,2021,7,9,9,49,22,7/9/2021,9:49:22 AM,7/09/2021 9:49:22,6.554,137.07,39.6132,47,2366,2712,3216,0,23232,5983,0,0.853,6.376,9:49:22 AM,51.2771703,2.61409383,0.3,DGPS      ,,,,,,,,,,,,,,,
0,0,0,0.0057,0.0578,0.0708,0.0179,0.0079,0.0162,0.0324,0.0382,0.0457,0.0503,0.052,0.0387,0.0222,0.0115,0.0089,0.0077,0.0121,0.0188,0.0584,0.2929,1.4285,3.4986,4.6682,4.156,3.3735,3.1393,3.5431,4.2947,4.6481,3.7078,1.7386,0.3623,0.0415,28.968,1.0083,11.11,0.075,0.9998,0.1,-5,2021,7,9,9,49,23,7/9/2021,9:49:23 AM,7/09/2021 9:49:23,6.554,136.54,39.4665,47,2365,2717,3209,0,23229,5981,0,0.852,6.4,9:49:23 AM,51.27717153,2.61409383,0.3,DGPS      ,,,,,,,,,,,,,,,
0,0,0,0.0059,0.0588,0.0716,0.0175,0.0072,0.0144,0.0292,0.035,0.0446,0.0513,0.0551,0.0413,0.023,0.0112,0.0081,0.0068,0.0106,0.0166,0.0537,0.2842,1.442,3.5677,4.7059,4.1076,3.299,3.0779,3.4982,4.2651,4.6867,3.8734,1.9085,0.4172,0.0492,28.8095,1.0097,11.11,0.075,0.9986,0.11,-5,2021,7,9,9,49,24,7/9/2021,9:49:24 AM,7/09/2021 9:49:24,6.554,137.59,39.7444,47,2369,2717,3203,0,23231,5988,0,0.854,6.299,9:49:24 AM,51.27717233,2.614095,0.2,DGPS      ,,,,,,,,,,,,,,,
0,0,0,0.0058,0.0592,0.0711,0.0169,0.0067,0.0137,0.0284,0.0356,0.0473,0.0557,0.0587,0.0426,0.0231,0.0111,0.0081,0.0067,0.0105,0.0162,0.0523,0.2762,1.4204,3.5787,4.7668,4.1587,3.3254,3.0918,3.4939,4.2426,4.689,3.9361,1.9737,0.4364,0.0514,28.9242,1.007,11.11,0.075,0.9992,0.1,-5,2021,7,9,9,49,25,7/9/2021,9:49:25 AM,7/09/2021 9:49:25,6.554,137.8,40.0109,47,2368,2713,3211,0,23230,5997,0,0.851,6.431,9:49:25 AM,51.27717233,2.61409733,0.4,DGPS      ,,,,,,,,,,,,,,,
0,0,0,0.0045,0.0559,0.0714,0.0164,0.0066,0.0142,0.0305,0.0382,0.0486,0.0559,0.0597,0.045,0.0251,0.0122,0.0087,0.007,0.0104,0.0153,0.0482,0.2562,1.3631,3.5402,4.7963,4.2018,3.3502,3.1147,3.5322,4.2994,4.6923,3.7872,1.7921,0.3682,0.0401,29.0279,1.0056,11.11,0.075,0.9992,0.11,-5,2021,7,9,9,49,26,7/9/2021,9:49:26 AM,7/09/2021 9:49:26,6.554,136.91,39.7078,47,2364,2712,3210,0,23231,6006,0,0.85,6.485,9:49:26 AM,51.27717252,2.61409917,0.4,DGPS      ,,,,,,,,,,,,,,,
0,0,0,0.0062,0.0583,0.0694,0.0175,0.0075,0.0153,0.0313,0.0387,0.049,0.0547,0.0553,0.0398,0.0223,0.0114,0.0086,0.0074,0.0114,0.0175,0.0548,0.2786,1.4009,3.5494,4.7731,4.16,3.2989,3.061,3.4869,4.2897,4.7893,4.0239,2.0223,0.4541,0.0558,28.8749,1.0076,11.12,0.075,0.9992,0.1,-5,2021,7,9,9,49,27,7/9/2021,9:49:27 AM,7/09/2021 9:49:27,6.554,138.52,40.2204,47,2370,2716,3209,0,23230,6000,0,0.852,6.403,9:49:27 AM,51.27717407,2.61410017,0.4,DGPS      ,,,,,,,,,,,,,,,
0,0,0,0.0054,0.0586,0.0724,0.017,0.0068,0.0141,0.0298,0.0362,0.047,0.0542,0.0574,0.0422,0.0232,0.0113,0.0083,0.007,0.0109,0.0169,0.0532,0.2749,1.4013,3.5429,4.7422,4.144,3.3273,3.1246,3.556,4.3094,4.7041,3.8545,1.8782,0.4017,0.0459,28.9945,1.0076,11.1,0.075,0.9992,0.1,-5,2021,7,9,9,49,28,7/9/2021,9:49:28 AM,7/09/2021 9:49:28,6.554,137.52,39.8788,47,2371,2715,3209,0,23229,5998,0,0.852,6.403,9:49:28 AM,51.27717587,2.61410167,0.4,DGPS      ,,,,,,,,,,,,,,,
0,0,0,0.0059,0.0567,0.0723,0.0189,0.0077,0.0149,0.0293,0.035,0.0448,0.052,0.0554,0.041,0.0229,0.0112,0.0082,0.0069,0.0108,0.0166,0.0531,0.2775,1.4124,3.5547,4.7571,4.1654,3.3212,3.0783,3.4814,4.253,4.6972,3.8699,1.8893,0.4112,0.0494,28.8646,1.0097,11.11,0.075,0.9992,0.1,-5,2021,7,9,9,49,29,7/9/2021,9:49:29 AM,7/09/2021 9:49:29,6.554,137.46,39.7814,47,2364,2715,3210,0,23230,5992,0,0.854,6.322,9:49:29 AM,51.27717655,2.6141035,0.3,DGPS      ,,,,,,,,,,,,,,,
0,0,0,0.0048,0.0537,0.0703,0.0176,0.0073,0.0152,0.0318,0.0385,0.0478,0.0536,0.0558,0.0407,0.0223,0.0108,0.0079,0.0066,0.0103,0.016,0.0517,0.2739,1.4096,3.5596,4.7739,4.1674,3.3072,3.0704,3.506,4.2975,4.699,3.7985,1.799,0.3736,0.0418,28.9282,1.0076,11.11,0.075,0.9992,0.1,-5,2021,7,9,9,49,30,7/9/2021,9:49:30 AM,7/09/2021 9:49:30,6.554,136.94,39.64,47,2365,2715,3210,0,23229,6014,0,0.852,6.403,9:49:30 AM,51.27717682,2.614105,0.2,DGPS      ,,,,,,,,,,,,,,,
0,0,0,0.0106,0.0684,0.0694,0.0185,0.008,0.0144,0.0265,0.0318,0.0422,0.0508,0.0562,0.0439,0.0254,0.0129,0.0094,0.0079,0.0122,0.0184,0.0574,0.2911,1.4437,3.618,4.8071,4.1606,3.2652,2.9879,3.3759,4.1739,4.7676,4.1872,2.251,0.5569,0.0779,28.7077,1.0063,11.1,0.075,0.9992,0.1,-5,2021,7,9,9,49,31,7/9/2021,9:49:31 AM,7/09/2021 9:49:31,6.554,139.31,40.5482,47,2369,2713,3206,0,23229,5963,0,0.851,6.458,9:49:31 AM,51.2771784,2.61410617,0.5,DGPS      ,,,,,,,,,,,,,,,
0,0,0,0.008,0.0644,0.0712,0.0178,0.0074,0.0143,0.0284,0.0353,0.0466,0.0531,0.0537,0.0376,0.0203,0.0101,0.0076,0.0068,0.011,0.0176,0.0569,0.294,1.4611,3.6027,4.73,4.0994,3.2743,3.064,3.5123,4.3464,4.853,4.0542,2.0211,0.4558,0.0574,28.9523,1.0056,11.12,0.075,0.9986,0.1,-5,2021,7,9,9,49,32,7/9/2021,9:49:32 AM,7/09/2021 9:49:32,6.554,138.64,40.394,47,2369,2714,3210,0,23229,5950,0,0.851,6.461,9:49:32 AM,51.27718048,2.61410767,0.3,DGPS      ,,,,,,,,,,,,,,,
0,0,0,0.0029,0.0474,0.0684,0.015,0.0059,0.0142,0.0336,0.0413,0.0508,0.0559,0.0565,0.0393,0.0209,0.0101,0.0077,0.0067,0.0107,0.017,0.0547,0.2893,1.463,3.5344,4.6273,4.038,3.2393,3.0352,3.504,4.3481,4.779,3.7799,1.6717,0.3065,0.0286,28.6376,1.0063,11.1,0.075,0.9992,0.1,-5,2021,7,9,9,49,33,7/9/2021,9:49:33 AM,7/09/2021 9:49:33,6.554,136.8,39.2033,47,2361,2718,3211,0,23230,5884,0,0.851,6.458,9:49:33 AM,51.27718155,2.61410917,0.2,DGPS      ,,,,,,,,,,,,,,,
0,0,0,0.0052,0.0549,0.0696,0.0174,0.0073,0.015,0.0312,0.037,0.0464,0.0518,0.0529,0.0379,0.021,0.0107,0.0082,0.0072,0.0112,0.0174,0.0546,0.2791,1.4018,3.5041,4.7142,4.1646,3.3341,3.0736,3.4551,4.2016,4.6472,3.8814,1.9244,0.4199,0.0492,28.6851,1.0097,11.1,0.075,0.9992,0.1,-5,2021,7,9,9,49,34,7/9/2021,9:49:34 AM,7/09/2021 9:49:34,6.554,137.74,39.6074,47,2365,2715,3207,0,23229,6024,0,0.854,6.322,9:49:34 AM,51.27718248,2.6141105,0.4,DGPS      ,,,,,,,,,,,,,,,
0,0,0,0.0072,0.0599,0.0676,0.0174,0.0076,0.0148,0.0293,0.0346,0.0443,0.0512,0.0545,0.0411,0.0238,0.0126,0.0098,0.0088,0.0139,0.0218,0.0662,0.3146,1.4434,3.4368,4.6087,4.1479,3.3578,3.0881,3.4694,4.2363,4.6676,3.8329,1.8628,0.405,0.0496,28.6894,1.0104,11.12,0.075,0.9992,0.1,-5,2021,7,9,9,49,35,7/9/2021,9:49:35 AM,7/09/2021 9:49:35,6.554,137.41,39.5074,47,2373,2712,3208,0,23229,6032,0,0.854,6.295,9:49:35 AM,51.27718428,2.61411217,0.4,DGPS      ,,,,,,,,,,,,,,,
0,0,0,0.0081,0.0603,0.0673,0.0184,0.0083,0.0157,0.0301,0.036,0.0456,0.0518,0.0548,0.0409,0.0233,0.0121,0.0093,0.0083,0.0134,0.0215,0.0657,0.3128,1.4387,3.4611,4.6566,4.185,3.3925,3.1189,3.486,4.2265,4.6348,3.8193,1.8923,0.4262,0.0548,28.869,1.0097,11.1,0.075,0.9992,0.1,-5,2021,7,9,9,49,36,7/9/2021,9:49:36 AM,7/09/2021 9:49:36,6.554,137.26,39.6964,47,2371,2714,3211,0,23230,6029,0,0.854,6.322,9:49:36 AM,51.27718602,2.61411417,0.3,DGPS      ,,,,,,,,,,,,,,,
0,0,0,0.0078,0.061,0.0678,0.0178,0.0078,0.0152,0.0296,0.0362,0.0462,0.0524,0.0539,0.0394,0.0222,0.0115,0.0088,0.0078,0.0125,0.0199,0.0627,0.3112,1.4732,3.5415,4.6723,4.1208,3.321,3.0831,3.4936,4.2844,4.7549,3.9428,1.9546,0.4411,0.0567,28.8816,1.0056,11.1,0.075,0.9986,0.1,-5,2021,7,9,9,49,37,7/9/2021,9:49:37 AM,7/09/2021 9:49:37,6.554,137.95,40.0316,47,2362,2715,3213,0,23229,6028,0,0.851,6.461,9:49:37 AM,51.2771873,2.61411567,0.3,DGPS      ,,,,,,,,,,,,,,,
0,0,0,0.0061,0.0558,0.0693,0.0188,0.0082,0.0159,0.0309,0.0368,0.0461,0.0522,0.0556,0.0414,0.0233,0.0118,0.0089,0.0077,0.0122,0.0191,0.0592,0.2937,1.4173,3.4838,4.6873,4.176,3.3786,3.1265,3.5033,4.2205,4.5968,3.7662,1.8552,0.4149,0.0518,28.8663,1.0104,11.1,0.075,0.9986,0.09,-5,2021,7,9,9,49,38,7/9/2021,9:49:38 AM,7/09/2021 9:49:38,6.554,137.02,39.5515,47,2365,2716,3207,0,23228,6036,0,0.855,6.272,9:49:38 AM,51.27718875,2.6141165,0.3,DGPS      ,,,,,,,,,,,,,,,
0,0,0,0.0069,0.0578,0.0662,0.0176,0.008,0.0157,0.0309,0.0374,0.0472,0.0536,0.0564,0.0425,0.0244,0.0127,0.0097,0.0083,0.0129,0.0196,0.0599,0.2944,1.4184,3.5012,4.7142,4.1749,3.3346,3.0516,3.4125,4.1585,4.6318,3.92,1.9937,0.4558,0.0573,28.648,1.0104,11.1,0.075,0.9986,0.1,-5,2021,7,9,9,49,39,7/9/2021,9:49:39 AM,7/09/2021 9:49:39,6.554,137.76,39.7067,47,2370,2717,3207,0,23229,6048,0,0.855,6.272,9:49:39 AM,51.27719063,2.61411783,0.5,DGPS      ,,,,,,,,,,,,,,,
0,0,0,0.007,0.0609,0.0682,0.0171,0.0075,0.0149,0.0296,0.0357,0.045,0.0515,0.0549,0.0416,0.0241,0.0128,0.0099,0.0087,0.0135,0.0207,0.0617,0.2948,1.3994,3.4488,4.6906,4.2099,3.3842,3.0858,3.4255,4.1762,4.6705,3.9455,1.9869,0.4472,0.0552,28.7005,1.0076,11.1,0.075,0.9992,0.09,-5,2021,7,9,9,49,40,7/9/2021,9:49:40 AM,7/09/2021 9:49:40,6.554,138.03,39.8059,47,2370,2714,3214,0,23228,6059,0,0.852,6.403,9:49:40 AM,51.27719247,2.61411967,0.4,DGPS      ,,,,,,,,,,,,,,,
0,0,0,0.0079,0.0618,0.0654,0.0166,0.0076,0.0149,0.0297,0.0367,0.0474,0.0544,0.0567,0.0413,0.023,0.0119,0.0092,0.0083,0.0138,0.0225,0.0704,0.3384,1.5226,3.5138,4.5642,4.0341,3.2636,3.0266,3.4406,4.2941,4.8915,4.1357,2.0446,0.4483,0.0545,28.5975,1.0042,11.11,0.075,0.9992,0.1,-5,2021,7,9,9,49,41,7/9/2021,9:49:41 AM,7/09/2021 9:49:41,6.554,138.93,40.1719,47,2364,2710,3202,0,23229,6065,0,0.849,6.539,9:49:41 AM,51.27719358,2.61412183,0.3,DGPS      ,,,,,,,,,,,,,,,
0,0,0,0.0085,0.0649,0.0648,0.0155,0.007,0.014,0.0284,0.0346,0.0441,0.0508,0.0542,0.0413,0.0243,0.0134,0.0109,0.0101,0.0163,0.026,0.0761,0.3409,1.4791,3.4318,4.5719,4.1037,3.3095,3.0232,3.3896,4.1882,4.738,4.0142,1.9874,0.4328,0.0522,28.4431,1.0022,11.09,0.075,0.9986,0.1,-5,2021,7,9,9,49,42,7/9/2021,9:49:42 AM,7/09/2021 9:49:42,6.554,138.19,39.668,47,2367,2716,3201,0,23230,6061,0,0.848,6.597,9:49:42 AM,51.27719547,2.61412283,0.6,DGPS      ,,,,,,,,,,,,,,,
0,0,0,0.0106,0.0636,0.0634,0.018,0.0089,0.0165,0.0308,0.0365,0.0447,0.0498,0.0515,0.039,0.0239,0.0141,0.0121,0.0118,0.0193,0.0311,0.0881,0.3663,1.4737,3.3117,4.4254,4.049,3.3113,3.0332,3.3924,4.2079,4.8007,4.1431,2.1513,0.5148,0.0718,28.2046,1.0076,11.1,0.075,0.9986,0.09,-5,2021,7,9,9,49,43,7/9/2021,9:49:43 AM,7/09/2021 9:49:43,6.554,139.8,39.8862,47,2365,2719,3217,0,23228,6053,0,0.853,6.38,9:49:43 AM,51.2771982,2.6141235,0.6,DGPS      ,,,,,,,,,,,,,,,
0,0,0,0.0093,0.0618,0.063,0.017,0.0083,0.016,0.0309,0.0362,0.0443,0.05,0.0536,0.0426,0.0273,0.0165,0.0141,0.0133,0.021,0.0327,0.0896,0.363,1.4475,3.2729,4.4417,4.0941,3.3413,3.0422,3.3752,4.1472,4.6933,4.0054,2.0196,0.4599,0.0603,28.1726,1.0097,11.1,0.075,0.9986,0.1,-5,2021,7,9,9,49,44,7/9/2021,9:49:44 AM,7/09/2021 9:49:44,6.554,138.61,39.4113,47,2367,2713,3221,0,23230,6070,0,0.854,6.299,9:49:44 AM,51.27720033,2.6141255,0.4,DGPS      ,,,,,,,,,,,,,,,
0,0,0,0.0105,0.0671,0.06,0.0146,0.007,0.0141,0.0289,0.0367,0.0473,0.0536,0.0559,0.0427,0.0258,0.015,0.0124,0.0116,0.0186,0.0295,0.0837,0.3524,1.4431,3.2863,4.4063,4.0046,3.2705,3.0203,3.4019,4.2034,4.7503,4.0653,2.0725,0.4741,0.0612,28.0238,1.007,11.09,0.075,0.9986,0.09,-5,2021,7,9,9,49,45,7/9/2021,9:49:45 AM,7/09/2021 9:49:45,6.554,139.41,39.4475,47,2375,2709,3193,0,23228,6084,0,0.852,6.407,9:49:45 AM,51.27720142,2.61412683,0.2,DGPS      ,,,,,,,,,,,,,,,
0,0,0,0.0115,0.0694,0.0609,0.0149,0.0072,0.0139,0.0275,0.0336,0.0429,0.0496,0.0535,0.0428,0.0273,0.0165,0.0139,0.0132,0.021,0.033,0.0913,0.3722,1.4764,3.3007,4.3815,3.94,3.1894,2.9565,3.3718,4.2099,4.7558,4.0086,1.9785,0.4382,0.0561,27.8423,1.009,11.09,0.075,0.9986,0.1,-5,2021,7,9,9,49,46,7/9/2021,9:49:46 AM,7/09/2021 9:49:46,6.554,138.79,39.0794,47,2372,2716,3205,0,23230,6074,0,0.854,6.326,9:49:46 AM,51.2772028,2.61412817,0.4,DGPS      ,,,,,,,,,,,,,,,
0,0,0,0.0111,0.0672,0.0617,0.0158,0.0077,0.0147,0.0284,0.035,0.0444,0.051,0.055,0.0442,0.0287,0.0178,0.0155,0.015,0.0236,0.0368,0.0986,0.3843,1.4748,3.2622,4.3537,3.9564,3.2189,2.9797,3.383,4.2269,4.8134,4.1217,2.081,0.4749,0.0632,27.9121,1.0063,11.1,0.075,0.9992,0.11,-5,2021,7,9,9,49,47,7/9/2021,9:49:47 AM,7/09/2021 9:49:47,6.554,139.54,39.4662,47,2359,2718,3222,0,23231,6079,0,0.851,6.458,9:49:47 AM,51.27720502,2.6141295,0.6,DGPS      ,,,,,,,,,,,,,,,
0,0,0,0.0087,0.0632,0.0656,0.017,0.0077,0.0147,0.0283,0.0335,0.0423,0.0495,0.0544,0.043,0.0263,0.0149,0.0123,0.0115,0.0184,0.0293,0.085,0.368,1.5234,3.4154,4.4832,4.0072,3.2403,2.9903,3.39,4.2155,4.7559,4.0053,1.9787,0.4373,0.0549,28.2589,1.007,11.1,0.075,0.998,0.09,-5,2021,7,9,9,49,48,7/9/2021,9:49:48 AM,7/09/2021 9:49:48,6.554,138.24,39.4909,47,2363,2712,3202,0,23228,6089,0,0.852,6.384,9:49:48 AM,51.27720772,2.614131,0.6,DGPS      ,,,,,,,,,,,,,,,
0,0,0,0.0073,0.0597,0.069,0.0182,0.0077,0.0148,0.0286,0.0339,0.0439,0.0519,0.0567,0.043,0.0247,0.0128,0.0098,0.0087,0.0139,0.0219,0.0671,0.3203,1.4683,3.4768,4.6004,4.1152,3.3691,3.1411,3.5353,4.2856,4.7074,3.8881,1.9256,0.4341,0.0555,28.9057,1.0076,11.1,0.075,0.9986,0.09,-5,2021,7,9,9,49,49,7/9/2021,9:49:49 AM,7/09/2021 9:49:49,6.554,137.82,39.9164,47,2371,2715,3205,0,23228,6090,0,0.853,6.38,9:49:49 AM,51.27720995,2.61413267,0.3,DGPS      ,,,,,,,,,,,,,,,
0,0,0,0.007,0.0603,0.0705,0.0182,0.0076,0.0145,0.0281,0.0349,0.0455,0.0535,0.0577,0.0438,0.0249,0.0125,0.0091,0.0075,0.0115,0.0173,0.0544,0.276,1.3715,3.4577,4.7085,4.2284,3.4407,3.1922,3.5712,4.2932,4.6701,3.8297,1.8989,0.4318,0.0553,29.1182,1.0076,11.09,0.075,0.9992,0.09,-5,2021,7,9,9,49,50,7/9/2021,9:49:50 AM,7/09/2021 9:49:50,6.554,137.72,40.004,47,2368,2715,3210,0,23228,6093,0,0.852,6.403,9:49:50 AM,51.27721157,2.61413333,0.4,DGPS      ,,,,,,,,,,,,,,,
0,0,0,0.0063,0.0587,0.0712,0.0183,0.0077,0.0152,0.0304,0.0367,0.0463,0.0524,0.0556,0.0421,0.024,0.012,0.0088,0.0074,0.0115,0.0178,0.0562,0.2861,1.4119,3.5089,4.7199,4.1886,3.3816,3.1479,3.5485,4.2955,4.721,3.9134,1.951,0.4369,0.0536,29.0675,1.0076,11.1,0.075,0.9986,0.1,-5,2021,7,9,9,49,51,7/9/2021,9:49:51 AM,7/09/2021 9:49:51,6.554,137.95,40.1432,47,2365,2711,3203,0,23230,6098,0,0.853,6.38,9:49:51 AM,51.27721312,2.6141335,0.5,DGPS      ,,,,,,,,,,,,,,,
0,0,0,0.0063,0.0588,0.0702,0.0178,0.0075,0.0146,0.0287,0.0359,0.0458,0.0538,0.0583,0.0442,0.0251,0.0126,0.0094,0.0079,0.0121,0.0183,0.0562,0.2808,1.392,3.496,4.7307,4.2183,3.4088,3.1483,3.5153,4.2467,4.6712,3.8965,1.9705,0.4521,0.0567,29.0204,1.0076,11.09,0.075,0.9986,0.1,-5,2021,7,9,9,49,52,7/9/2021,9:49:52 AM,7/09/2021 9:49:52,6.554,137.89,40.0675,47,2367,2716,3221,0,23229,6090,0,0.853,6.38,9:49:52 AM,51.27721575,2.6141335,0.6,DGPS      ,,,,,,,,,,,,,,,
0,0,0,0.0051,0.0542,0.0714,0.0187,0.0078,0.0157,0.0315,0.0374,0.0462,0.0519,0.0547,0.04,0.0221,0.0109,0.0082,0.007,0.011,0.0171,0.0544,0.2815,1.4165,3.5283,4.7109,4.1319,3.315,3.1039,3.5621,4.3953,4.8561,3.9928,1.9443,0.4182,0.0485,29.0107,1.0056,11.1,0.075,0.998,0.1,-5,2021,7,9,9,49,53,7/9/2021,9:49:53 AM,7/09/2021 9:49:53,6.554,138.58,40.2707,47,2370,2718,3213,0,23230,6105,0,0.851,6.438,9:49:53 AM,51.27721858,2.61413467,0.6,DGPS      ,,,,,,,,,,,,,,,
0,0,0,0.0053,0.0552,0.0706,0.0178,0.0073,0.0148,0.0301,0.0358,0.0456,0.0527,0.0562,0.0412,0.0226,0.011,0.0081,0.0069,0.0108,0.0166,0.0528,0.2751,1.4022,3.5338,4.743,4.1477,3.2913,3.0315,3.4349,4.2495,4.7891,4.0292,1.9905,0.4315,0.05,28.6704,1.0083,11.09,0.075,0.998,0.11,-5,2021,7,9,9,49,54,7/9/2021,9:49:54 AM,7/09/2021 9:49:54,6.554,138.51,39.9606,47,2371,2714,3197,0,23231,6112,0,0.854,6.329,9:49:54 AM,51.27722058,2.61413633,0.3,DGPS      ,,,,,,,,,,,,,,,
0,0,0,0.0058,0.0593,0.0708,0.0169,0.0069,0.0142,0.0294,0.0361,0.0463,0.0532,0.056,0.0418,0.0239,0.0123,0.0094,0.008,0.0122,0.0185,0.0571,0.2861,1.4056,3.47,4.6676,4.1664,3.3904,3.1769,3.5973,4.3368,4.6834,3.7706,1.7974,0.3783,0.0433,29.0752,1.0076,11.1,0.075,0.998,0.11,-5,2021,7,9,9,49,55,7/9/2021,9:49:55 AM,7/09/2021 9:49:55,6.554,137.18,39.7481,47,2363,2711,3211,0,23231,6123,0,0.853,6.356,9:49:55 AM,51.27722223,2.61413683,0.4,DGPS      ,,,,,,,,,,,,,,,
0,0,0,0.0067,0.0607,0.0706,0.0174,0.0071,0.014,0.0281,0.0348,0.0457,0.0529,0.0564,0.0425,0.0243,0.0125,0.0093,0.0078,0.0119,0.018,0.0556,0.2803,1.404,3.5431,4.746,4.1389,3.3045,3.089,3.5348,4.3367,4.7845,3.9402,1.9231,0.4195,0.0508,28.9536,1.0076,11.1,0.075,0.9986,0.11,-5,2021,7,9,9,49,56,7/9/2021,9:49:56 AM,7/09/2021 9:49:56,6.554,138.06,40.0717,47,2365,2715,3216,0,23231,6123,0,0.853,6.38,9:49:56 AM,51.27722485,2.614137,0.7,DGPS      ,,,,,,,,,,,,,,,
0,0,0,0.0077,0.0626,0.0693,0.0173,0.0072,0.0141,0.0285,0.0363,0.0485,0.0557,0.0576,0.0417,0.0229,0.0114,0.0083,0.007,0.0108,0.0165,0.0522,0.2684,1.3691,3.5436,4.8389,4.2365,3.344,3.0811,3.482,4.2448,4.7241,4.0292,2.1003,0.4994,0.0658,28.984,1.0076,11.1,0.075,0.998,0.1,-5,2021,7,9,9,49,57,7/9/2021,9:49:57 AM,7/09/2021 9:49:57,6.554,138.67,40.4029,47,2369,2717,3210,0,23230,6115,0,0.853,6.356,9:49:57 AM,51.27722778,2.61413833,0.6,DGPS      ,,,,,,,,,,,,,,,
0,0,0.002,0.0194,0.0767,0.0659,0.0197,0.0092,0.0146,0.0244,0.0319,0.0437,0.0523,0.0537,0.0389,0.022,0.0116,0.0089,0.0083,0.0131,0.0206,0.0637,0.3078,1.4654,3.6842,4.8745,4.1692,3.2504,2.9837,3.3731,4.159,4.788,4.3796,2.5927,0.7501,0.1302,28.8679,1.007,11.1,0.075,0.998,0.1,-5,2021,7,9,9,49,58,7/9/2021,9:49:58 AM,7/09/2021 9:49:58,6.554,141,41.5088,47,2396,2712,3220,0,23229,5988,0,0.852,6.384,9:49:58 AM,51.27722997,2.61413917,0.4,DGPS      ,,,,,,,,,,,,,,,
0,0,0.001,0.014,0.0739,0.0721,0.0204,0.0086,0.014,0.0241,0.0316,0.0442,0.0552,0.0616,0.0486,0.0288,0.015,0.0108,0.0089,0.013,0.0187,0.0558,0.2679,1.3284,3.5221,4.865,4.242,3.3269,3.0615,3.4431,4.2155,4.8261,4.3416,2.4758,0.6715,0.1064,28.8927,1.0083,11.1,0.075,0.998,0.09,-5,2021,7,9,9,49,59,7/9/2021,9:49:59 AM,7/09/2021 9:49:59,6.554,141.01,41.3145,47,2473,2705,3289,0,23228,5706,0,0.854,6.329,9:49:59 AM,51.27723238,2.61413967,0.6,DGPS      ,,,,,,,,,,,,,,,
0,0,0,0.0064,0.0594,0.0738,0.0191,0.0078,0.0152,0.0303,0.0379,0.049,0.0558,0.0588,0.0443,0.0254,0.0127,0.009,0.0073,0.0109,0.0161,0.0498,0.2542,1.3209,3.495,4.8028,4.1848,3.303,3.078,3.503,4.2931,4.8018,4.0813,2.0946,0.4805,0.0603,28.8238,1.009,11.1,0.075,0.9986,0.1,-5,2021,7,9,9,50,0,7/9/2021,9:50:00 AM,7/09/2021 9:50:00,6.554,139.2,40.3422,47,2525,2728,3340,0,23229,5542,0,0.854,6.326,9:50:00 AM,51.27723522,2.6141405,0.6,DGPS      ,,,,,,,,,,,,,,,
0,0,0.0018,0.0191,0.081,0.0705,0.0196,0.0081,0.0127,0.0216,0.0287,0.0425,0.0553,0.0633,0.0509,0.0304,0.0158,0.0112,0.0093,0.0136,0.0196,0.0588,0.2841,1.3915,3.6074,4.8521,4.1493,3.2254,2.985,3.4136,4.2664,4.9808,4.6265,2.769,0.8075,0.1407,28.8086,1.0063,11.1,0.075,0.9986,0.1,-5,2021,7,9,9,50,1,7/9/2021,9:50:01 AM,7/09/2021 9:50:01,6.554,142.97,42.1333,47,2618,2746,3358,0,23230,5178,0,0.851,6.434,9:50:01 AM,51.27723797,2.61414067,0.6,DGPS      ,,,,,,,,,,,,,,,
0,0,0,0.0036,0.0525,0.0756,0.0175,0.0067,0.0146,0.0321,0.0403,0.0503,0.0568,0.0587,0.0432,0.0239,0.0114,0.0081,0.0064,0.0095,0.0141,0.0451,0.2443,1.3286,3.5135,4.7801,4.1216,3.245,3.0626,3.5502,4.3638,4.7789,3.8794,1.8363,0.3709,0.0387,28.7801,1.0076,11.1,0.075,0.9986,0.1,-5,2021,7,9,9,50,2,7/9/2021,9:50:02 AM,7/09/2021 9:50:02,6.554,137.85,39.6845,47,2697,2752,3350,0,23229,4928,0,0.853,6.38,9:50:02 AM,51.27724058,2.61414117,0.7,DGPS      ,,,,,,,,,,,,,,,
0,0,0,0.008,0.0699,0.0753,0.0171,0.0065,0.0128,0.0259,0.0333,0.0464,0.0565,0.0621,0.0475,0.0266,0.013,0.0091,0.0072,0.0107,0.0157,0.0497,0.2631,1.3915,3.6332,4.8609,4.1402,3.2417,3.0498,3.5412,4.3967,4.9254,4.1628,2.1098,0.4777,0.0593,29.1116,0.9994,11.09,0.075,0.998,0.1,-5,2021,7,9,9,50,3,7/9/2021,9:50:03 AM,7/09/2021 9:50:03,6.554,139.15,40.847,46,2706,2741,3329,0,23229,5160,0,0.846,6.683,9:50:03 AM,51.27724305,2.6141425,0.5,DGPS      ,,,,,,,,,,,,,,,
0,0,0.0038,0.0264,0.0816,0.0651,0.0211,0.0102,0.015,0.0234,0.0298,0.0417,0.0507,0.0541,0.0417,0.025,0.0138,0.0105,0.0094,0.0145,0.022,0.0658,0.3075,1.4373,3.6461,4.8742,4.1929,3.2845,3.0563,3.483,4.2701,4.8525,4.4125,2.6601,0.8167,0.1586,29.1775,1.0056,11.08,0.075,0.998,0.09,-5,2021,7,9,9,50,4,7/9/2021,9:50:04 AM,7/09/2021 9:50:04,6.554,141.75,42.078,47,2722,2770,3371,0,23228,4728,0,0.851,6.438,9:50:04 AM,51.27724578,2.614143,0.7,DGPS      ,,,,,,,,,,,,,,,
0,0,0.0028,0.0246,0.0887,0.0688,0.0187,0.008,0.0125,0.0212,0.0294,0.0439,0.0563,0.0624,0.0487,0.0288,0.0153,0.0111,0.0097,0.0147,0.022,0.0648,0.2972,1.3912,3.5906,4.8627,4.1674,3.2368,3.0024,3.4292,4.2561,4.9279,4.4922,2.6361,0.7621,0.1347,28.886,1.0042,11.1,0.075,0.9974,0.1,-5,2021,7,9,9,50,5,7/9/2021,9:50:05 AM,7/09/2021 9:50:05,6.554,141.81,41.8389,46,2715,2739,3360,0,23229,4558,0,0.851,6.469,9:50:05 AM,51.27724928,2.61414317,0.8,DGPS      ,,,,,,,,,,,,,,,
0,0,0,0.0034,0.0543,0.0832,0.0188,0.0066,0.0145,0.0324,0.0402,0.052,0.0594,0.0627,0.0463,0.0262,0.0129,0.0094,0.0076,0.0115,0.017,0.0522,0.2632,1.3537,3.4966,4.7335,4.0748,3.2293,3.0977,3.6217,4.4512,4.8601,3.9077,1.8195,0.3579,0.0364,28.9323,1.0015,11.09,0.075,0.998,0.09,-5,2021,7,9,9,50,6,7/9/2021,9:50:06 AM,7/09/2021 9:50:06,6.554,137.82,39.914,47,2706,2722,3351,0,23228,4673,0,0.848,6.601,9:50:06 AM,51.27725215,2.61414317,0.5,DGPS      ,,,,,,,,,,,,,,,
0,0,0,0.0021,0.0415,0.0731,0.0184,0.0077,0.0182,0.0419,0.0499,0.057,0.0607,0.0617,0.0462,0.0268,0.0133,0.0096,0.0077,0.0114,0.0168,0.0507,0.2543,1.3141,3.4213,4.6791,4.0738,3.2637,3.1623,3.7294,4.6041,4.9618,3.8294,1.6686,0.3013,0.0279,29.1168,0.9988,11.09,0.075,0.9986,0.1,-5,2021,7,9,9,50,7,7/9/2021,9:50:07 AM,7/09/2021 9:50:07,6.554,137.8,39.9058,47,2708,2715,3391,0,23230,4793,0,0.845,6.734,9:50:07 AM,51.27725447,2.614143,0.6,DGPS      ,,,,,,,,,,,,,,,
0,0,0,0.0018,0.0391,0.0761,0.0194,0.0075,0.0172,0.0389,0.0471,0.0553,0.0604,0.0642,0.0498,0.0299,0.0152,0.0112,0.0089,0.013,0.0188,0.0547,0.2585,1.2772,3.3109,4.6539,4.1337,3.2981,3.1334,3.6188,4.4067,4.758,3.7332,1.6637,0.3052,0.0281,28.7197,1.007,11.09,0.075,0.998,0.09,-5,2021,7,9,9,50,8,7/9/2021,9:50:08 AM,7/09/2021 9:50:08,6.554,137.14,39.2076,46,2717,2715,3373,0,23228,4865,0,0.852,6.384,9:50:08 AM,51.27725772,2.614143,0.9,DGPS      ,,,,,,,,,,,,,,,
0,0,0,0.0128,0.074,0.0753,0.0207,0.0085,0.0143,0.0257,0.034,0.0478,0.0596,0.0665,0.0535,0.0332,0.018,0.0134,0.0113,0.0166,0.024,0.068,0.2969,1.346,3.436,4.7312,4.1093,3.2213,3.0426,3.5153,4.3416,4.9512,4.4141,2.4776,0.6543,0.1008,28.7174,1.0063,11.09,0.075,0.9986,0.1,-5,2021,7,9,9,50,9,7/9/2021,9:50:09 AM,7/09/2021 9:50:09,6.554,141.6,41.3155,47,2718,2732,3375,0,23229,4668,0,0.851,6.434,9:50:09 AM,51.27726165,2.614143,0.8,DGPS      ,,,,,,,,,,,,,,,
0,0,0,0,0.0208,0.068,0.0168,0.0063,0.0191,0.0538,0.0608,0.063,0.0602,0.0579,0.0415,0.0239,0.0116,0.0087,0.0068,0.01,0.0145,0.0445,0.2332,1.2779,3.3481,4.6058,3.9999,3.201,3.1255,3.7123,4.5408,4.7181,3.3671,1.2748,0.1827,0.0119,28.6327,1.007,11.09,0.075,0.9986,0.1,-5,2021,7,9,9,50,10,7/9/2021,9:50:10 AM,7/09/2021 9:50:10,6.554,135.32,38.1873,47,2725,2734,3367,0,23230,4910,0,0.852,6.407,9:50:10 AM,51.2772644,2.6141435,0.5,DGPS      ,,,,,,,,,,,,,,,
0,0,0,0.01,0.0707,0.0778,0.0201,0.0077,0.0137,0.0257,0.0326,0.0453,0.0552,0.0614,0.0497,0.0314,0.0173,0.0132,0.0114,0.0166,0.024,0.0684,0.3071,1.4227,3.5513,4.7305,4.0589,3.2143,3.066,3.5451,4.3425,4.8651,4.2256,2.2806,0.569,0.0812,28.8906,1.0029,11.1,0.075,0.9986,0.09,-5,2021,7,9,9,50,11,7/9/2021,9:50:11 AM,7/09/2021 9:50:11,6.554,139.92,40.9121,47,2706,2747,3368,0,23228,5055,0,0.849,6.57,9:50:11 AM,51.2772667,2.61414367,0.6,DGPS      ,,,,,,,,,,,,,,,
0,0,0,0,0.0059,0.0461,0.0145,0.0058,0.0232,0.0793,0.0754,0.0655,0.0573,0.0557,0.0378,0.0204,0.0085,0.0061,0.0044,0.0066,0.0099,0.033,0.2018,1.2644,3.3845,4.6221,3.9664,3.1676,3.1192,3.7478,4.5779,4.6063,3.007,0.9491,0.1004,0.0042,28.6071,1.0022,11.08,0.075,0.998,0.1,-5,2021,7,9,9,50,12,7/9/2021,9:50:12 AM,7/09/2021 9:50:12,6.554,133.29,37.2742,47,2715,2717,3362,0,23229,5051,0,0.848,6.574,9:50:12 AM,51.27727015,2.6141435,0.9,DGPS      ,,,,,,,,,,,,,,,
0,0,0,0,0.017,0.0613,0.0153,0.006,0.0195,0.0583,0.0656,0.0655,0.0618,0.059,0.0404,0.0218,0.0098,0.007,0.0053,0.0079,0.0117,0.0379,0.2188,1.2855,3.4102,4.648,3.9962,3.1761,3.0931,3.6927,4.5512,4.7452,3.3617,1.2265,0.1633,0.0096,28.6429,1.0042,11.09,0.075,0.998,0.09,-5,2021,7,9,9,50,13,7/9/2021,9:50:13 AM,7/09/2021 9:50:13,6.554,135.08,38.1492,47,2696,2737,3361,0,23228,5476,0,0.85,6.492,9:50:13 AM,51.27727647,2.61414067,0.7,RTK       ,,,,,,,,,,,,,,,
0,0,0.0015,0.0185,0.0835,0.0712,0.0191,0.0083,0.0138,0.0243,0.033,0.0465,0.0562,0.0597,0.0456,0.0267,0.0142,0.0106,0.0094,0.0145,0.0221,0.065,0.2968,1.3897,3.5744,4.8321,4.1284,3.2202,3.0243,3.4939,4.3606,5.0221,4.5076,2.5612,0.699,0.1144,28.9641,1.0001,11.09,0.075,0.998,0.1,-5,2021,7,9,9,50,14,7/9/2021,9:50:14 AM,7/09/2021 9:50:14,6.554,141.9,41.8687,47,2661,2702,3382,0,23230,5167,0,0.847,6.656,9:50:14 AM,51.27727922,2.61414,0.5,RTK       ,,,,,,,,,,,,,,,
0,0,0,0,0.0306,0.0706,0.0156,0.0059,0.0169,0.0467,0.0567,0.0639,0.0644,0.0626,0.0443,0.0244,0.0115,0.0083,0.0064,0.0096,0.0142,0.0444,0.2371,1.3018,3.4168,4.6511,4.0052,3.1858,3.105,3.7049,4.5768,4.8254,3.5233,1.377,0.2073,0.0147,28.7815,1.0022,11.08,0.075,0.9986,0.1,-5,2021,7,9,9,50,15,7/9/2021,9:50:15 AM,7/09/2021 9:50:15,6.554,135.94,38.729,47,2656,2725,3332,0,23230,5404,0,0.848,6.597,9:50:15 AM,51.27728192,2.61414017,0.7,RTK       ,,,,,,,,,,,,,,,
0,0,0,0.0047,0.0531,0.0765,0.0206,0.0082,0.0162,0.0331,0.0413,0.0532,0.0608,0.0642,0.0481,0.028,0.0142,0.0105,0.0088,0.0132,0.0196,0.058,0.272,1.3152,3.3888,4.6806,4.1107,3.2951,3.1705,3.6799,4.4718,4.8404,3.9334,1.9235,0.4229,0.0515,29.0169,1.0063,11.07,0.075,0.9986,0.1,-5,2021,7,9,9,50,16,7/9/2021,9:50:16 AM,7/09/2021 9:50:16,6.554,138.7,40.1887,47,2609,2707,3340,0,23229,4785,0,0.851,6.434,9:50:16 AM,51.27728562,2.61414,0.8,RTK       ,,,,,,,,,,,,,,,
0,0.0027,0.0119,0.0448,0.0886,0.0604,0.0213,0.0105,0.0137,0.0197,0.0273,0.0417,0.0549,0.062,0.0509,0.0325,0.0188,0.0142,0.0131,0.0197,0.0292,0.0807,0.3302,1.4002,3.5449,4.8265,4.1783,3.2792,3.0545,3.4502,4.2007,4.8652,4.661,3.0765,1.0856,0.2565,28.9833,1.0049,11.09,0.075,0.9986,0.09,-5,2021,7,9,9,50,17,7/9/2021,9:50:17 AM,7/09/2021 9:50:17,6.554,144.17,42.9279,47,2589,2725,3345,0,23228,4689,0,0.85,6.489,9:50:17 AM,51.27728922,2.61413833,0.7,RTK       ,,,,,,,,,,,,,,,
0,0,0.0016,0.0171,0.0756,0.0713,0.0216,0.0096,0.0153,0.026,0.034,0.0478,0.0589,0.0654,0.0531,0.0333,0.0183,0.0136,0.0117,0.0171,0.0247,0.069,0.2988,1.3517,3.4641,4.7496,4.1317,3.2651,3.0789,3.5294,4.3261,4.9319,4.4738,2.6288,0.7546,0.1308,28.8804,1.0035,11.07,0.075,0.998,0.1,-5,2021,7,9,9,50,18,7/9/2021,9:50:18 AM,7/09/2021 9:50:18,6.554,142.3,41.8002,47,2577,2653,3328,0,23229,4394,0,0.85,6.52,9:50:18 AM,51.27729238,2.61413783,0.7,RTK       ,,,,,,,,,,,,,,,
0,0,0,0,0.0022,0.0318,0.0132,0.0058,0.0263,0.0985,0.0879,0.0695,0.0564,0.0533,0.0351,0.0189,0.0077,0.0055,0.0038,0.0057,0.0084,0.0289,0.1873,1.2341,3.3287,4.5683,3.9167,3.1093,3.0666,3.7321,4.6266,4.6876,3.0218,0.9031,0.0846,0.0029,28.3286,1.0022,11.07,0.075,0.9986,0.09,-5,2021,7,9,9,50,19,7/9/2021,9:50:19 AM,7/09/2021 9:50:19,6.554,133.69,37.0287,47,2557,2651,3323,0,23228,4645,0,0.848,6.597,9:50:19 AM,51.27729558,2.61413883,0.8,RTK       ,,,,,,,,,,,,,,,
0,0,0,0,0.0168,0.0656,0.016,0.0058,0.0189,0.0568,0.0632,0.064,0.0608,0.0611,0.0452,0.0265,0.0127,0.0092,0.0068,0.0096,0.0136,0.0418,0.2271,1.2843,3.3471,4.5566,3.9574,3.1973,3.1524,3.7551,4.575,4.6804,3.2233,1.1426,0.1477,0.0084,28.6467,1.0063,11.09,0.075,0.998,0.09,-5,2021,7,9,9,50,20,7/9/2021,9:50:20 AM,7/09/2021 9:50:20,6.554,134.52,37.8492,46,2605,2716,3384,0,23228,4946,0,0.852,6.411,9:50:20 AM,51.277299,2.61413833,0.9,RTK       ,,,,,,,,,,,,,,,
0,0,0,0.0125,0.0668,0.0712,0.0223,0.0102,0.0172,0.0302,0.0388,0.0511,0.0593,0.0612,0.0464,0.0279,0.015,0.0113,0.0099,0.015,0.0224,0.0652,0.2941,1.3663,3.5092,4.7819,4.1251,3.2413,3.0636,3.5389,4.3477,4.8983,4.3085,2.4013,0.6429,0.1031,28.922,1.0076,11.06,0.075,0.9986,0.1,-5,2021,7,9,9,50,21,7/9/2021,9:50:21 AM,7/09/2021 9:50:21,6.554,140.88,41.2761,47,2600,2697,3342,0,23229,4989,0,0.853,6.38,9:50:21 AM,51.27730275,2.6141365,0.9,RTK       ,,,,,,,,,,,,,,,
0,0,0.0015,0.0157,0.0713,0.0696,0.0216,0.0098,0.0161,0.0279,0.0361,0.0499,0.0596,0.0625,0.0473,0.0284,0.0154,0.0115,0.01,0.0148,0.0217,0.0637,0.2965,1.4132,3.6218,4.8193,4.0519,3.1278,2.9407,3.438,4.3565,5.1178,4.723,2.7741,0.7852,0.1334,28.7201,1.0035,11.08,0.075,0.9974,0.1,-5,2021,7,9,9,50,22,7/9/2021,9:50:22 AM,7/09/2021 9:50:22,6.554,143.39,42.2538,47,2622,2694,3354,0,23230,4694,0,0.85,6.496,9:50:22 AM,51.27730612,2.614136,0.7,RTK       ,,,,,,,,,,,,,,,
0,0,0,0.003,0.0494,0.0723,0.0162,0.0064,0.0149,0.0351,0.0448,0.0561,0.0613,0.0621,0.0453,0.0251,0.0122,0.0087,0.0069,0.0102,0.015,0.0461,0.2433,1.3238,3.5197,4.7709,4.0705,3.1928,3.0312,3.5431,4.4014,4.8762,3.9671,1.8521,0.3637,0.0366,28.6878,1.0042,11.09,0.075,0.998,0.1,-5,2021,7,9,9,50,23,7/9/2021,9:50:23 AM,7/09/2021 9:50:23,6.554,138.24,39.7835,47,2628,2684,3362,0,23230,4559,0,0.85,6.492,9:50:23 AM,51.2773091,2.6141355,0.6,RTK       ,,,,,,,,,,,,,,,
0,0,0,0,0.0298,0.0703,0.0154,0.0058,0.0167,0.0458,0.0542,0.0599,0.0604,0.0595,0.0424,0.0231,0.0106,0.0075,0.0056,0.0083,0.012,0.0389,0.2248,1.3155,3.4942,4.7146,4.0226,3.1628,3.0213,3.5618,4.4315,4.8049,3.661,1.4912,0.2325,0.0166,28.5153,1.0049,11.09,0.075,0.998,0.1,-5,2021,7,9,9,50,24,7/9/2021,9:50:24 AM,7/09/2021 9:50:24,6.554,136.35,38.7216,47,2632,2714,3343,0,23229,4470,0,0.851,6.465,9:50:24 AM,51.27731263,2.6141345,0.8,RTK       ,,,,,,,,,,,,,,,
0,0,0.0025,0.0218,0.0812,0.0685,0.0205,0.0092,0.014,0.0231,0.0305,0.0435,0.0541,0.0591,0.0461,0.0275,0.0148,0.011,0.0098,0.0149,0.0223,0.0657,0.3005,1.399,3.5912,4.8613,4.1563,3.224,2.9984,3.4392,4.2683,4.9532,4.6084,2.775,0.8157,0.1453,28.8783,1.0049,11.08,0.075,0.998,0.1,-5,2021,7,9,9,50,25,7/9/2021,9:50:25 AM,7/09/2021 9:50:25,6.554,142.86,42.1758,47,2630,2702,3364,0,23229,4339,0,0.851,6.465,9:50:25 AM,51.27731682,2.61413367,0.9,RTK       ,,,,,,,,,,,,,,,
0,0,0,0.0081,0.0655,0.0773,0.0204,0.0082,0.0151,0.0286,0.0356,0.0471,0.0556,0.0607,0.0471,0.0277,0.0142,0.0103,0.0085,0.0126,0.0185,0.0558,0.2717,1.3535,3.5337,4.8144,4.1052,3.1758,2.9734,3.4492,4.3128,4.9473,4.3781,2.3824,0.586,0.0788,28.6066,1.007,11.08,0.075,0.9986,0.09,-5,2021,7,9,9,50,26,7/9/2021,9:50:26 AM,7/09/2021 9:50:26,6.554,141.04,40.9793,47,2641,2719,3362,0,23228,4111,0,0.852,6.407,9:50:26 AM,51.27732033,2.61413267,0.6,RTK       ,,,,,,,,,,,,,,,
0,0,0,0,0,0.0051,0.0052,0.0045,0.027,0.1225,0.102,0.0664,0.0483,0.0468,0.0302,0.0162,0.0062,0.0044,0.0029,0.0042,0.0062,0.0219,0.1588,1.1843,3.3277,4.6028,3.9138,3.0905,3.0537,3.7405,4.6503,4.6289,2.815,0.7487,0.0579,0.0015,28.2424,1.0063,11.08,0.075,0.998,0.08,-5,2021,7,9,9,50,27,7/9/2021,9:50:27 AM,7/09/2021 9:50:27,6.554,133.06,36.4944,46,2659,2731,3343,0,23227,4538,0,0.852,6.411,9:50:27 AM,51.27732325,2.614132,0.7,RTK       ,,,,,,,,,,,,,,,
0,0,0.0045,0.0298,0.0871,0.0643,0.0193,0.0089,0.0131,0.0211,0.029,0.0431,0.0557,0.0623,0.0497,0.0303,0.0166,0.0124,0.011,0.0163,0.0238,0.0685,0.3065,1.414,3.6383,4.8766,4.1234,3.1873,2.9824,3.4451,4.288,4.9706,4.6312,2.8428,0.8757,0.1688,28.9284,1.0035,11.09,0.075,0.9986,0.09,-5,2021,7,9,9,50,28,7/9/2021,9:50:28 AM,7/09/2021 9:50:28,6.554,143.05,42.4176,46,2646,2720,3357,0,23228,4644,0,0.849,6.543,9:50:28 AM,51.27732688,2.61413117,0.9,RTK       ,,,,,,,,,,,,,,,
0,0,0,0.0084,0.0638,0.0707,0.0185,0.0079,0.0151,0.0298,0.0389,0.0515,0.0583,0.0588,0.0431,0.0248,0.0129,0.0095,0.0082,0.0122,0.018,0.0544,0.2688,1.3652,3.5751,4.8182,4.0973,3.2001,3.0279,3.5257,4.3794,4.9424,4.2601,2.2311,0.5298,0.0707,28.8625,1.0056,11.1,0.075,0.9974,0.08,-5,2021,7,9,9,50,29,7/9/2021,9:50:29 AM,7/09/2021 9:50:29,6.554,140.21,40.8964,47,2652,2725,3356,0,23227,4542,0,0.852,6.414,9:50:29 AM,51.27733122,2.6141305,1,RTK       ,,,,,,,,,,,,,,,
0,0,0,0.0126,0.0714,0.0693,0.0187,0.0081,0.0141,0.0258,0.0345,0.0476,0.0572,0.0605,0.0452,0.0256,0.013,0.0095,0.0081,0.0124,0.0186,0.0568,0.2806,1.4034,3.652,4.8708,4.1129,3.1978,2.9995,3.468,4.3206,4.9412,4.3538,2.3795,0.6079,0.0907,28.9146,1.0035,11.09,0.075,0.9974,0.08,-5,2021,7,9,9,50,30,7/9/2021,9:50:30 AM,7/09/2021 9:50:30,6.554,140.6,41.2878,47,2653,2736,3365,0,23227,4554,0,0.85,6.496,9:50:30 AM,51.27733485,2.61412883,0.7,RTK       ,,,,,,,,,,,,,,,
0,0,0,0.0087,0.0657,0.0732,0.0193,0.0083,0.0156,0.0303,0.0373,0.048,0.054,0.0549,0.0402,0.0229,0.0117,0.0087,0.0075,0.0116,0.0177,0.0553,0.2814,1.4266,3.6604,4.8504,4.0941,3.1868,3.0062,3.4954,4.3497,4.9256,4.2497,2.2136,0.5205,0.069,28.9419,1.0029,11.08,0.075,0.998,0.08,-5,2021,7,9,9,50,31,7/9/2021,9:50:31 AM,7/09/2021 9:50:31,6.554,139.66,40.9204,47,2649,2731,3364,0,23227,4326,0,0.849,6.547,9:50:31 AM,51.27733768,2.61412717,0.6,RTK       ,,,,,,,,,,,,,,,
0,0,0,0.0098,0.0673,0.0701,0.0182,0.0077,0.0143,0.0273,0.035,0.0462,0.0537,0.056,0.0418,0.0242,0.0125,0.0093,0.0079,0.0119,0.0178,0.0551,0.2797,1.4176,3.6323,4.8349,4.1339,3.2247,2.9866,3.3992,4.1922,4.7963,4.2825,2.3715,0.6012,0.0851,28.6872,1.0056,11.09,0.075,0.998,0.09,-5,2021,7,9,9,50,32,7/9/2021,9:50:32 AM,7/09/2021 9:50:32,6.554,140.19,40.8239,47,2642,2723,3354,0,23228,4322,0,0.851,6.438,9:50:32 AM,51.2773415,2.61412683,1,RTK       ,,,,,,,,,,,,,,,
0,0,0,0.0063,0.0592,0.0737,0.019,0.0078,0.0152,0.0301,0.0359,0.0459,0.0531,0.0571,0.0432,0.0245,0.0121,0.0086,0.0069,0.0105,0.0157,0.0508,0.2732,1.4308,3.6428,4.802,4.0738,3.1724,2.9566,3.4279,4.3241,4.9857,4.3362,2.2458,0.5158,0.0644,28.6792,1.0035,11.07,0.075,0.998,0.1,-5,2021,7,9,9,50,33,7/9/2021,9:50:33 AM,7/09/2021 9:50:33,6.554,140.27,40.8272,46,2647,2730,3360,0,23229,4236,0,0.85,6.52,9:50:33 AM,51.27734593,2.6141255,0.9,RTK       ,,,,,,,,,,,,,,,
0,0,0,0.0077,0.0665,0.0731,0.0169,0.0065,0.0131,0.0274,0.036,0.0498,0.058,0.0599,0.0433,0.024,0.012,0.0088,0.0074,0.0114,0.0172,0.0541,0.2811,1.4391,3.6271,4.759,4.0525,3.194,3.0096,3.499,4.3894,5.0066,4.3232,2.234,0.5158,0.0658,28.8439,1.0029,11.09,0.075,0.9968,0.08,-5,2021,7,9,9,50,34,7/9/2021,9:50:34 AM,7/09/2021 9:50:34,6.554,140.28,40.9893,47,2643,2734,3348,0,23227,4069,0,0.85,6.5,9:50:34 AM,51.27734942,2.61412367,0.8,RTK       ,,,,,,,,,,,,,,,
0,0,0,0,0.0086,0.0486,0.0136,0.0055,0.0213,0.0702,0.0679,0.0623,0.0557,0.0532,0.0351,0.0178,0.0072,0.0051,0.0037,0.0056,0.0085,0.0301,0.2,1.3093,3.5022,4.7193,4.0341,3.1789,3.0371,3.6125,4.489,4.6637,3.19,1.0678,0.1227,0.0058,28.6024,1.0035,11.08,0.075,0.9974,0.1,-5,2021,7,9,9,50,35,7/9/2021,9:50:35 AM,7/09/2021 9:50:35,6.554,133.78,37.6525,47,2644,2730,3360,0,23229,4347,0,0.85,6.496,9:50:35 AM,51.27735262,2.614123,0.7,RTK       ,,,,,,,,,,,,,,,
0,0,0,0.0133,0.073,0.0664,0.0171,0.0075,0.0136,0.0254,0.0337,0.0464,0.0554,0.0584,0.0435,0.0249,0.0131,0.0099,0.0088,0.0136,0.0207,0.0631,0.307,1.4721,3.6414,4.7739,4.0919,3.2374,3.0338,3.5,4.3673,4.9755,4.3566,2.3488,0.5917,0.0863,29.0326,1.0022,11.07,0.075,0.998,0.1,-5,2021,7,9,9,50,36,7/9/2021,9:50:36 AM,7/09/2021 9:50:36,6.554,140.55,41.3913,46,2642,2721,3370,0,23229,5084,0,0.848,6.574,9:50:36 AM,51.27735687,2.61412233,1.1,RTK       ,,,,,,,,,,,,,,,
0,0,0,0.007,0.0566,0.065,0.018,0.0085,0.0167,0.033,0.0406,0.0495,0.0531,0.0526,0.0376,0.021,0.0109,0.0083,0.0073,0.0114,0.0177,0.0554,0.2821,1.413,3.5618,4.7506,4.1016,3.2306,3.0108,3.4748,4.3248,4.87,4.1485,2.1322,0.4925,0.063,28.7203,1.007,11.09,0.075,0.998,0.08,-5,2021,7,9,9,50,37,7/9/2021,9:50:37 AM,7/09/2021 9:50:37,6.554,139.58,40.4264,47,2627,2730,3351,0,23227,5193,0,0.852,6.384,9:50:37 AM,51.27736137,2.61412017,0.9,RTK       ,,,,,,,,,,,,,,,
0,0,0,0,0.0283,0.0614,0.0136,0.0058,0.0173,0.048,0.0558,0.0596,0.0582,0.0552,0.037,0.0191,0.0089,0.0066,0.0054,0.0086,0.0136,0.0445,0.2517,1.3868,3.481,4.6227,4.0195,3.2238,3.0681,3.6089,4.4965,4.8119,3.5692,1.4065,0.2127,0.015,28.7059,1.0022,11.08,0.075,0.9974,0.09,-5,2021,7,9,9,50,38,7/9/2021,9:50:38 AM,7/09/2021 9:50:38,6.554,136.02,38.721,46,2604,2780,3312,0,23228,5333,0,0.849,6.551,9:50:38 AM,51.27736493,2.61411917,0.8,RTK       ,,,,,,,,,,,,,,,
0,0,0,0.0027,0.0443,0.0666,0.0156,0.0064,0.0154,0.0362,0.0431,0.052,0.0559,0.0568,0.0409,0.0224,0.0108,0.0079,0.0064,0.0098,0.0149,0.0478,0.259,1.3806,3.5178,4.7349,4.1415,3.3054,3.0929,3.5568,4.3764,4.7489,3.7268,1.6533,0.3079,0.0297,28.9212,1.0042,11.06,0.075,0.998,0.1,-5,2021,7,9,9,50,39,7/9/2021,9:50:39 AM,7/09/2021 9:50:39,6.554,136.69,39.388,47,2544,2703,3264,0,23229,6718,0,0.85,6.492,9:50:39 AM,51.27736865,2.61411767,1,RTK       ,,,,,,,,,,,,,,,
0,0,0,0.0038,0.051,0.0673,0.0155,0.0065,0.0148,0.0334,0.0406,0.0501,0.0545,0.0556,0.0397,0.0214,0.0105,0.0079,0.0068,0.0109,0.0173,0.0548,0.2833,1.4215,3.4984,4.6565,4.0886,3.2755,3.0642,3.5304,4.3991,4.8963,3.9838,1.8516,0.3647,0.0375,28.7799,1.0035,11.09,0.075,0.998,0.09,-5,2021,7,9,9,50,40,7/9/2021,9:50:40 AM,7/09/2021 9:50:40,6.554,138.39,39.9137,47,2517,2666,3341,0,23228,6806,0,0.85,6.52,9:50:40 AM,51.27737305,2.61411517,1.1,RTK       ,,,,,,,,,,,,,,,
0,0,0,0,0.0267,0.068,0.0145,0.0053,0.0162,0.0451,0.0484,0.0524,0.0539,0.0569,0.0414,0.0223,0.0101,0.0073,0.0055,0.0084,0.0127,0.042,0.2441,1.3748,3.4468,4.6083,4.0543,3.2622,3.0677,3.5631,4.4317,4.7616,3.5096,1.3411,0.1901,0.0121,28.5901,1.0029,11.08,0.075,0.9974,0.09,-5,2021,7,9,9,50,41,7/9/2021,9:50:41 AM,7/09/2021 9:50:41,6.554,135.57,38.4047,47,2479,2708,3284,0,23228,7030,0,0.85,6.523,9:50:41 AM,51.27737745,2.614114,0.9,RTK       ,,,,,,,,,,,,,,,
0,0.003,0.013,0.046,0.0822,0.0503,0.0176,0.01,0.0136,0.0198,0.0267,0.0387,0.0488,0.0518,0.0391,0.0234,0.0136,0.0111,0.0111,0.0181,0.0291,0.0858,0.3695,1.5332,3.6166,4.7644,4.1934,3.3269,3.0067,3.3326,4.1064,4.8047,4.5854,2.9453,0.998,0.2253,28.9025,1.0056,11.07,0.075,0.998,0.1,-5,2021,7,9,9,50,42,7/9/2021,9:50:42 AM,7/09/2021 9:50:42,6.554,143,42.4613,47,2446,2691,3260,0,23229,6989,0,0.851,6.438,9:50:42 AM,51.27738162,2.61411283,0.9,RTK       ,,,,,,,,,,,,,,,
0,0,0.0017,0.0181,0.0755,0.0631,0.0177,0.0083,0.0139,0.0245,0.0314,0.0442,0.0537,0.0575,0.0435,0.025,0.0132,0.0099,0.0088,0.0139,0.0216,0.0658,0.3127,1.4527,3.5834,4.7967,4.2066,3.3295,3.0322,3.4035,4.2106,4.8538,4.3952,2.5276,0.7046,0.1179,28.9392,1.0042,11.08,0.075,0.9974,0.08,-5,2021,7,9,9,50,43,7/9/2021,9:50:43 AM,7/09/2021 9:50:43,6.554,141.11,41.5382,47,2522,2713,3348,0,23227,6748,0,0.851,6.469,9:50:43 AM,51.27738622,2.614111,1.1,RTK       ,,,,,,,,,,,,,,,
0,0,0,0.0039,0.0507,0.072,0.0182,0.0075,0.0157,0.0329,0.0399,0.049,0.0552,0.0577,0.0423,0.0236,0.0116,0.0086,0.0073,0.0112,0.017,0.054,0.2834,1.446,3.5669,4.6731,4.0493,3.2486,3.0551,3.5138,4.3549,4.84,3.9746,1.8997,0.3913,0.0425,28.7694,1.007,11.08,0.075,0.998,0.08,-5,2021,7,9,9,50,44,7/9/2021,9:50:44 AM,7/09/2021 9:50:44,6.554,138.1,39.9171,47,2524,2710,3327,0,23227,6676,0,0.852,6.384,9:50:44 AM,51.27739062,2.61411033,0.8,RTK       ,,,,,,,,,,,,,,,
0,0.001,0.0063,0.033,0.082,0.0586,0.0193,0.0097,0.0138,0.021,0.0276,0.0397,0.0498,0.053,0.0398,0.0236,0.0133,0.0106,0.0104,0.0166,0.0261,0.0772,0.3455,1.5145,3.655,4.8054,4.1857,3.3147,3.0257,3.3772,4.1567,4.8534,4.5958,2.8807,0.9199,0.1871,29.0128,1.0035,11.08,0.075,0.998,0.09,-5,2021,7,9,9,50,45,7/9/2021,9:50:45 AM,7/09/2021 9:50:45,6.554,142.78,42.4496,47,2546,2722,3315,0,23228,6428,0,0.85,6.52,9:50:45 AM,51.27739473,2.61410867,1,RTK       ,,,,,,,,,,,,,,,
0,0,0,0.0046,0.0528,0.0687,0.0171,0.0074,0.0157,0.0328,0.0387,0.0469,0.052,0.0536,0.0394,0.0225,0.0117,0.0092,0.0082,0.0128,0.0199,0.0606,0.297,1.4351,3.5014,4.6744,4.1395,3.3445,3.1227,3.5482,4.3486,4.82,3.9875,1.9366,0.4111,0.0467,28.986,1.0029,11.08,0.075,0.9974,0.08,-5,2021,7,9,9,50,46,7/9/2021,9:50:46 AM,7/09/2021 9:50:46,6.554,138.38,40.1877,47,2566,2741,3329,0,23226,6408,0,0.85,6.523,9:50:46 AM,51.27739945,2.61410533,1.2,RTK       ,,,,,,,,,,,,,,,
0,0,0,0.0076,0.0604,0.0659,0.0168,0.0075,0.0148,0.0295,0.0368,0.047,0.0529,0.0535,0.0382,0.0212,0.0111,0.0087,0.0079,0.0127,0.0202,0.0631,0.311,1.4695,3.5246,4.652,4.1059,3.3003,3.0531,3.4711,4.2982,4.8329,4.0724,2.0374,0.4574,0.0573,28.7615,1.0063,11.09,0.075,0.998,0.1,-5,2021,7,9,9,50,47,7/9/2021,9:50:47 AM,7/09/2021 9:50:47,6.554,138.85,40.2187,47,2597,2773,3319,0,23229,6323,0,0.852,6.411,9:50:47 AM,51.27740453,2.61410383,1,RTK       ,,,,,,,,,,,,,,,
0,0,0,0.0064,0.0614,0.0667,0.015,0.0064,0.0137,0.0294,0.0365,0.0462,0.0523,0.0549,0.0411,0.0235,0.0125,0.0098,0.0089,0.0142,0.0224,0.0675,0.3215,1.481,3.4817,4.5681,4.0472,3.2846,3.0659,3.5022,4.3656,4.9088,4.0634,1.9445,0.4056,0.0459,28.7066,1.0015,11.08,0.075,0.9974,0.1,-5,2021,7,9,9,50,48,7/9/2021,9:50:48 AM,7/09/2021 9:50:48,6.554,138.76,40.0747,47,2575,2759,3376,0,23230,6250,0,0.848,6.578,9:50:48 AM,51.27740905,2.61410367,0.9,RTK       ,,,,,,,,,,,,,,,
0,0,0.0018,0.019,0.0756,0.06,0.0165,0.0078,0.0131,0.0229,0.0298,0.0418,0.0519,0.0562,0.0424,0.0249,0.0139,0.0113,0.0109,0.0178,0.0285,0.0832,0.3595,1.4941,3.4421,4.5761,4.1327,3.3681,3.0962,3.4517,4.2271,4.8093,4.2546,2.355,0.6273,0.1016,28.7769,1.0049,11.07,0.075,0.9968,0.09,-5,2021,7,9,9,50,49,7/9/2021,9:50:49 AM,7/09/2021 9:50:49,6.554,140.44,40.9245,47,2598,2744,3360,0,23228,6014,0,0.852,6.418,9:50:49 AM,51.27741363,2.61410167,1.2,RTK       ,,,,,,,,,,,,,,,
0,0,0,0.0042,0.0535,0.0666,0.0148,0.0063,0.0146,0.0329,0.0386,0.0463,0.05,0.0517,0.0391,0.0234,0.013,0.0109,0.0101,0.0165,0.0265,0.0781,0.3517,1.5168,3.3968,4.4248,3.9543,3.2417,3.0474,3.5109,4.4004,4.9207,3.9755,1.7965,0.3398,0.0339,28.4419,1.0022,11.07,0.075,0.9968,0.08,-5,2021,7,9,9,50,50,7/9/2021,9:50:50 AM,7/09/2021 9:50:50,6.554,138.32,39.5081,47,2580,2755,3336,0,23227,6096,0,0.849,6.527,9:50:50 AM,51.27741897,2.6140985,1.2,RTK       ,,,,,,,,,,,,,,,
0,0,0,0.0029,0.0455,0.0647,0.015,0.0066,0.0161,0.038,0.0438,0.0507,0.0527,0.0532,0.0388,0.0227,0.0126,0.0106,0.0097,0.0157,0.0251,0.0738,0.3347,1.4594,3.318,4.4462,4.052,3.3118,3.0599,3.4626,4.292,4.796,3.8762,1.7234,0.3119,0.0289,28.3348,1.0001,11.07,0.075,0.9968,0.08,-5,2021,7,9,9,50,51,7/9/2021,9:50:51 AM,7/09/2021 9:50:51,6.554,137.56,39.0713,47,2566,2793,3330,0,23227,6185,0,0.848,6.609,9:50:51 AM,51.27742437,2.614097,1.2,RTK       ,,,,,,,,,,,,,,,
0,0.0018,0.0102,0.045,0.0902,0.0521,0.0154,0.0077,0.0109,0.0168,0.0224,0.0339,0.0451,0.052,0.0437,0.0295,0.0192,0.0169,0.0176,0.0281,0.0444,0.1169,0.4228,1.5016,3.305,4.4371,4.0765,3.3278,3.0378,3.3806,4.1809,4.8962,4.611,2.8363,0.8925,0.1839,28.3899,1.0063,11.08,0.075,0.998,0.08,-5,2021,7,9,9,50,52,7/9/2021,9:50:52 AM,7/09/2021 9:50:52,6.554,143.58,41.8101,47,2596,2757,3352,0,23227,5816,0,0.852,6.411,9:50:52 AM,51.27742953,2.614096,1.2,RTK       ,,,,,,,,,,,,,,,
0,0,0,0.01,0.0697,0.0636,0.0144,0.0064,0.0128,0.0263,0.0333,0.0437,0.0517,0.0563,0.0443,0.0275,0.0161,0.0137,0.013,0.0209,0.033,0.092,0.376,1.4916,3.3099,4.3942,3.985,3.2447,3.001,3.4092,4.2672,4.8623,4.1216,2.0368,0.4443,0.0542,28.1275,1.0042,11.08,0.075,0.9968,0.08,-5,2021,7,9,9,50,53,7/9/2021,9:50:53 AM,7/09/2021 9:50:53,6.554,139.31,39.6465,47,2595,2745,3336,0,23227,5546,0,0.851,6.445,9:50:53 AM,51.27743467,2.61409383,1.3,RTK       ,,,,,,,,,,,,,,,
0,0,0,0.001,0.0332,0.0656,0.0142,0.0059,0.0168,0.0441,0.0484,0.0517,0.0523,0.0525,0.0381,0.022,0.0118,0.0099,0.0089,0.0144,0.0229,0.0677,0.3175,1.4521,3.3164,4.4124,3.9895,3.2704,3.0648,3.523,4.387,4.8106,3.6773,1.47,0.2238,0.0161,28.3145,1.0001,11.07,0.075,0.9974,0.08,-5,2021,7,9,9,50,54,7/9/2021,9:50:54 AM,7/09/2021 9:50:54,6.554,136.51,38.5126,47,2586,2754,3340,0,23227,5750,0,0.847,6.632,9:50:54 AM,51.27744053,2.61409133,1.4,RTK       ,,,,,,,,,,,,,,,
0,0,0.0029,0.0247,0.082,0.0589,0.0166,0.0083,0.0132,0.0221,0.0277,0.0382,0.0474,0.0529,0.0427,0.0268,0.016,0.0135,0.0135,0.0222,0.0361,0.1017,0.4116,1.5831,3.4619,4.4842,4.0285,3.2858,3.0229,3.3886,4.2284,4.9477,4.5206,2.5684,0.7023,0.1179,28.5624,1.0008,11.07,0.075,0.9974,0.09,-5,2021,7,9,9,50,55,7/9/2021,9:50:55 AM,7/09/2021 9:50:55,6.554,141.77,41.4192,47,2577,2756,3360,0,23228,5813,0,0.848,6.605,9:50:55 AM,51.27744668,2.61409,1.3,RTK       ,,,,,,,,,,,,,,,
0,0,0.0017,0.0183,0.0741,0.0602,0.0173,0.0087,0.0144,0.0247,0.0308,0.0401,0.0474,0.0511,0.0399,0.0243,0.0141,0.0117,0.0114,0.0188,0.0304,0.0879,0.3725,1.517,3.4656,4.5889,4.0989,3.2891,2.9856,3.3249,4.1252,4.8129,4.4021,2.4972,0.6719,0.1081,28.395,1.0056,11.07,0.075,0.9968,0.08,-5,2021,7,9,9,50,56,7/9/2021,9:50:56 AM,7/09/2021 9:50:56,6.554,141.12,40.8877,46,2597,2740,3347,0,23227,5700,0,0.852,6.391,9:50:56 AM,51.2774519,2.6140875,1.1,RTK       ,,,,,,,,,,,,,,,
0.0026,0.0129,0.0321,0.0642,0.0739,0.0384,0.015,0.0093,0.0116,0.0159,0.0226,0.035,0.0471,0.053,0.0426,0.0274,0.0173,0.0148,0.0159,0.0263,0.0431,0.1193,0.4491,1.6092,3.5317,4.5897,4.101,3.2986,2.9773,3.2783,4.0676,4.909,4.9298,3.3889,1.2676,0.3308,28.6428,1.0022,11.07,0.075,0.9974,0.07,-5,2021,7,9,9,50,57,7/9/2021,9:50:57 AM,7/09/2021 9:50:57,6.554,145.79,43.4689,46,2633,2717,3321,0,23225,5322,0,0.849,6.551,9:50:57 AM,51.27745733,2.614085,1.4,RTK       ,,,,,,,,,,,,,,,
0,0,0,0.0063,0.0575,0.0658,0.0167,0.0077,0.0159,0.0326,0.0379,0.0457,0.0501,0.0519,0.0383,0.0218,0.0116,0.0092,0.0084,0.014,0.0229,0.0703,0.3312,1.4767,3.4177,4.5297,4.0706,3.3143,3.0636,3.4717,4.3222,4.8668,4.0559,1.9556,0.4111,0.0473,28.5823,1.0056,11.07,0.075,0.9974,0.1,-5,2021,7,9,9,50,58,7/9/2021,9:50:58 AM,7/09/2021 9:50:58,6.554,138.84,39.9194,47,2626,2728,3361,0,23229,5204,0,0.852,6.414,9:50:58 AM,51.27746408,2.61408317,1.5,RTK       ,,,,,,,,,,,,,,,
0,0,0,0.0124,0.0723,0.064,0.0158,0.0072,0.0133,0.0251,0.0328,0.0444,0.0533,0.057,0.0429,0.0247,0.0135,0.0109,0.0102,0.0167,0.0269,0.0802,0.3587,1.528,3.497,4.5834,4.073,3.282,3.0189,3.4129,4.2521,4.8785,4.27,2.2537,0.5445,0.0753,28.6296,1.0022,11.08,0.075,0.998,0.1,-5,2021,7,9,9,50,59,7/9/2021,9:50:59 AM,7/09/2021 9:50:59,6.554,139.87,40.6517,47,2622,2723,3368,0,23229,5154,0,0.848,6.574,9:50:59 AM,51.2774707,2.61408217,1.4,RTK       ,,,,,,,,,,,,,,,
0,0,0,0.0082,0.0615,0.0668,0.0178,0.0081,0.0154,0.0297,0.0353,0.0444,0.0509,0.0537,0.0403,0.0237,0.0131,0.0106,0.0099,0.0158,0.025,0.0745,0.3412,1.5007,3.469,4.576,4.095,3.3125,3.0373,3.4055,4.2134,4.8083,4.1778,2.1749,0.511,0.067,28.5553,1.0056,11.07,0.075,0.9974,0.08,-5,2021,7,9,9,51,0,7/9/2021,9:51:00 AM,7/09/2021 9:51:00,6.554,139.44,40.2943,47,2633,2708,3367,0,23227,4958,0,0.852,6.414,9:51:00 AM,51.27747663,2.61408,1.3,RTK       ,,,,,,,,,,,,,,,
0,0,0,0.0016,0.0402,0.0672,0.0135,0.0054,0.0152,0.0402,0.047,0.0537,0.056,0.0563,0.0398,0.0216,0.0107,0.0084,0.0072,0.0116,0.0187,0.0588,0.3013,1.4673,3.418,4.4722,3.9661,3.2364,3.0597,3.5652,4.4824,4.8926,3.6948,1.4675,0.2247,0.0166,28.5417,1.0001,11.07,0.075,0.998,0.09,-5,2021,7,9,9,51,1,7/9/2021,9:51:01 AM,7/09/2021 9:51:01,6.554,136.55,38.8376,47,2609,2767,3330,0,23228,5049,0,0.847,6.656,9:51:01 AM,51.2774826,2.61407817,1.3,RTK       ,,,,,,,,,,,,,,,
0,0,0,0.0056,0.0539,0.0658,0.0171,0.0078,0.016,0.0325,0.0387,0.0475,0.0529,0.0543,0.0393,0.0223,0.0119,0.0096,0.0088,0.0144,0.023,0.0702,0.3312,1.487,3.4446,4.5414,4.0557,3.2844,3.0341,3.4566,4.3255,4.8923,4.1029,1.9975,0.4255,0.0493,28.5521,1.0035,11.07,0.075,0.9968,0.09,-5,2021,7,9,9,51,2,7/9/2021,9:51:02 AM,7/09/2021 9:51:02,6.554,139.06,40.0198,47,2621,2750,3362,0,23228,4965,0,0.851,6.473,9:51:02 AM,51.27748935,2.61407583,1.6,RTK       ,,,,,,,,,,,,,,,
0,0,0.0019,0.0199,0.0785,0.0615,0.0167,0.0079,0.013,0.0226,0.0291,0.0405,0.0503,0.0553,0.0433,0.0261,0.0146,0.0117,0.011,0.0176,0.0278,0.0812,0.3547,1.501,3.5027,4.6418,4.1294,3.3096,3.0218,3.3961,4.2221,4.8721,4.3851,2.4757,0.6723,0.1096,28.7097,1.0035,11.06,0.075,0.9974,0.07,-5,2021,7,9,9,51,3,7/9/2021,9:51:03 AM,7/09/2021 9:51:03,6.554,141.07,41.2243,46,2653,2731,3359,0,23225,4713,0,0.85,6.496,9:51:03 AM,51.27749662,2.61407317,1.5,RTK       ,,,,,,,,,,,,,,,
0,0,0.0024,0.0213,0.0768,0.0615,0.0183,0.009,0.0144,0.0238,0.03,0.0399,0.0474,0.0493,0.0366,0.0213,0.0119,0.0097,0.0097,0.0162,0.027,0.0815,0.3616,1.524,3.5292,4.6596,4.1623,3.348,3.046,3.3901,4.202,4.9221,4.5739,2.7063,0.7822,0.1375,28.8308,1.0029,11.07,0.075,0.9974,0.09,-5,2021,7,9,9,51,4,7/9/2021,9:51:04 AM,7/09/2021 9:51:04,6.554,142.56,41.9526,46,2663,2731,3350,0,23228,4654,0,0.85,6.523,9:51:04 AM,51.27750305,2.61407217,1.4,RTK       ,,,,,,,,,,,,,,,
0,0,0,0.0017,0.0384,0.0657,0.0146,0.006,0.0157,0.0389,0.0451,0.0523,0.0551,0.0561,0.04,0.0216,0.0106,0.0082,0.0071,0.0117,0.0189,0.0596,0.3017,1.4516,3.4041,4.5103,4.0282,3.2727,3.0538,3.4963,4.3525,4.8044,3.7595,1.591,0.2663,0.0217,28.4385,1.0029,11.07,0.075,0.9968,0.09,-5,2021,7,9,9,51,5,7/9/2021,9:51:05 AM,7/09/2021 9:51:05,6.554,136.87,38.8812,47,2641,2720,3369,0,23228,4619,0,0.85,6.5,9:51:05 AM,51.27750943,2.61407033,1.5,RTK       ,,,,,,,,,,,,,,,
0,0,0,0.0119,0.068,0.0647,0.0173,0.0078,0.0142,0.0264,0.0324,0.0431,0.0507,0.0539,0.0403,0.0235,0.0129,0.0104,0.0098,0.016,0.0258,0.0777,0.3539,1.5258,3.4882,4.5536,4.0472,3.2757,3.0319,3.4434,4.2979,4.9225,4.3125,2.3004,0.5679,0.0814,28.6244,1.0035,11.07,0.075,0.9974,0.09,-5,2021,7,9,9,51,6,7/9/2021,9:51:06 AM,7/09/2021 9:51:06,6.554,140.61,40.8088,47,2655,2729,3362,0,23228,4597,0,0.85,6.496,9:51:06 AM,51.27751677,2.61406767,1.7,RTK       ,,,,,,,,,,,,,,,
0,0,0,0.0121,0.0678,0.0629,0.0169,0.0081,0.0146,0.0272,0.0337,0.0445,0.0525,0.0566,0.0437,0.0262,0.0147,0.012,0.0112,0.0179,0.0282,0.0817,0.3557,1.4943,3.4257,4.5263,4.0549,3.2822,3.029,3.4378,4.3029,4.9316,4.2966,2.2734,0.5541,0.0776,28.5413,1.0029,11.07,0.075,0.9974,0.08,-5,2021,7,9,9,51,7,7/9/2021,9:51:07 AM,7/09/2021 9:51:07,6.554,140.54,40.675,46,2666,2728,3343,0,23227,4582,0,0.85,6.523,9:51:07 AM,51.277524,2.614066,1.5,RTK       ,,,,,,,,,,,,,,,
0,0,0,0.0042,0.0555,0.0694,0.0149,0.0059,0.0131,0.0289,0.0359,0.0455,0.0519,0.0546,0.0399,0.0223,0.0116,0.0092,0.0083,0.0134,0.0215,0.0667,0.3247,1.5001,3.4765,4.5509,4.0344,3.2584,3.0248,3.4582,4.316,4.8157,3.8757,1.7439,0.3297,0.0328,28.5167,1.0042,11.07,0.075,0.9968,0.08,-5,2021,7,9,9,51,8,7/9/2021,9:51:08 AM,7/09/2021 9:51:08,6.554,137.32,39.3145,47,2652,2731,3391,0,23227,4546,0,0.851,6.445,9:51:08 AM,51.27753093,2.61406567,1.5,RTK       ,,,,,,,,,,,,,,,
0,0,0.0022,0.0212,0.0805,0.063,0.0173,0.0079,0.0127,0.0216,0.0278,0.0397,0.0498,0.0545,0.0415,0.024,0.0129,0.01,0.0093,0.0151,0.0241,0.0737,0.3429,1.5234,3.5999,4.7032,4.1407,3.3297,3.0521,3.3943,4.1653,4.8221,4.3967,2.5324,0.7101,0.1208,28.8603,1.0042,11.07,0.075,0.9974,0.09,-5,2021,7,9,9,51,9,7/9/2021,9:51:09 AM,7/09/2021 9:51:09,6.554,140.99,41.4424,47,2653,2720,3345,0,23228,4668,0,0.851,6.469,9:51:09 AM,51.27753835,2.6140635,1.7,RTK       ,,,,,,,,,,,,,,,
0,0,0,0.0111,0.0704,0.0688,0.0176,0.0076,0.0137,0.0257,0.0322,0.0431,0.0511,0.0537,0.0389,0.021,0.0103,0.0076,0.0067,0.011,0.0179,0.058,0.2943,1.4294,3.5504,4.7617,4.1895,3.3342,3.0727,3.4962,4.3597,4.983,4.3335,2.2856,0.5518,0.0754,29.0545,1.0015,11.07,0.075,0.9968,0.09,-5,2021,7,9,9,51,10,7/9/2021,9:51:10 AM,7/09/2021 9:51:10,6.554,140.67,41.2838,47,2667,2727,3348,0,23228,4682,0,0.849,6.554,9:51:10 AM,51.27754588,2.614061,1.6,RTK       ,,,,,,,,,,,,,,,
0,0,0.0024,0.0219,0.0813,0.0642,0.018,0.0081,0.0127,0.0209,0.0272,0.0392,0.0503,0.0571,0.0459,0.0277,0.0151,0.0114,0.0101,0.0153,0.023,0.069,0.322,1.4698,3.5841,4.7599,4.1864,3.3502,3.0991,3.5082,4.3538,5.0128,4.5094,2.5789,0.7221,0.1228,29.2543,1.0022,11.06,0.075,0.9968,0.08,-5,2021,7,9,9,51,11,7/9/2021,9:51:11 AM,7/09/2021 9:51:11,6.554,141.96,42.2004,47,2664,2734,3363,0,23226,4532,0,0.849,6.527,9:51:11 AM,51.27755315,2.6140595,1.7,RTK       ,,,,,,,,,,,,,,,
0,0,0,0.0051,0.0567,0.0725,0.0176,0.007,0.0143,0.0297,0.0362,0.0467,0.0533,0.0564,0.0415,0.0229,0.0113,0.0084,0.007,0.0109,0.0167,0.0531,0.2791,1.4296,3.5681,4.7312,4.1296,3.2955,3.0561,3.4828,4.3194,4.8671,4.1028,2.0392,0.4427,0.0511,28.8587,1.0035,11.06,0.075,0.9974,0.09,-5,2021,7,9,9,51,12,7/9/2021,9:51:12 AM,7/09/2021 9:51:12,6.554,138.92,40.3616,47,2659,2732,3377,0,23228,4509,0,0.85,6.496,9:51:12 AM,51.27756073,2.61405833,1.7,RTK       ,,,,,,,,,,,,,,,
0,0,0,0.0053,0.055,0.0706,0.018,0.0075,0.015,0.0306,0.0371,0.0475,0.0543,0.0579,0.0433,0.0246,0.0125,0.0093,0.0078,0.0117,0.0174,0.0538,0.2751,1.3934,3.5152,4.7417,4.1782,3.3365,3.0882,3.5141,4.3455,4.881,4.1235,2.0693,0.4573,0.0542,28.9671,1.0035,11.07,0.075,0.9974,0.08,-5,2021,7,9,9,51,13,7/9/2021,9:51:13 AM,7/09/2021 9:51:13,6.554,139.25,40.5527,47,2665,2726,3350,0,23227,4518,0,0.85,6.496,9:51:13 AM,51.27756857,2.614057,1.7,RTK       ,,,,,,,,,,,,,,,
0,0,0,0.0029,0.0472,0.0716,0.0165,0.0064,0.0147,0.0332,0.039,0.0478,0.0529,0.0555,0.0406,0.0223,0.0107,0.0079,0.0065,0.0103,0.0161,0.0521,0.2798,1.4509,3.5871,4.7153,4.0631,3.212,2.9873,3.4438,4.3325,4.9251,4.1165,1.9594,0.3875,0.0386,28.626,1.0022,11.07,0.075,0.9974,0.08,-5,2021,7,9,9,51,14,7/9/2021,9:51:14 AM,7/09/2021 9:51:14,6.554,138.77,40.0532,46,2667,2729,3357,0,23226,4517,0,0.849,6.551,9:51:14 AM,51.27757622,2.6140555,1.6,RTK       ,,,,,,,,,,,,,,,
0,0,0.0021,0.0187,0.0715,0.0626,0.0199,0.0098,0.0155,0.0253,0.0306,0.0407,0.0489,0.0528,0.0404,0.0239,0.0129,0.01,0.0091,0.0143,0.0223,0.0675,0.3167,1.4476,3.5504,4.762,4.2129,3.3551,3.0471,3.4021,4.2045,4.8802,4.453,2.5748,0.7248,0.1243,28.8972,1.0042,11.06,0.075,0.9968,0.08,-5,2021,7,9,9,51,15,7/9/2021,9:51:15 AM,7/09/2021 9:51:15,6.554,141.73,41.6544,47,2664,2731,3371,0,23226,4498,0,0.851,6.445,9:51:15 AM,51.2775839,2.61405433,1.7,RTK       ,,,,,,,,,,,,,,,
0,0,0,0.0056,0.0577,0.0653,0.015,0.0065,0.0142,0.031,0.0384,0.0487,0.0548,0.057,0.0416,0.0234,0.0122,0.0096,0.0084,0.0132,0.0205,0.0622,0.3017,1.4271,3.4312,4.5711,4.0697,3.2983,3.0756,3.5215,4.38,4.8985,4.0252,1.9076,0.3908,0.0431,28.6615,1.0029,11.07,0.075,0.9968,0.08,-5,2021,7,9,9,51,16,7/9/2021,9:51:16 AM,7/09/2021 9:51:16,6.554,138.82,39.9268,47,2661,2730,3361,0,23226,4595,0,0.85,6.5,9:51:16 AM,51.2775925,2.61405367,1.9,RTK       ,,,,,,,,,,,,,,,
0,0,0,0.0042,0.0512,0.0651,0.0154,0.0068,0.0151,0.033,0.0378,0.0459,0.0512,0.0555,0.0431,0.0256,0.0138,0.011,0.0097,0.0151,0.0234,0.0684,0.3156,1.4254,3.3466,4.5061,4.0971,3.3558,3.1157,3.5257,4.3307,4.76,3.8221,1.7524,0.3424,0.0356,28.61,1.0035,11.07,0.075,0.9968,0.08,-5,2021,7,9,9,51,17,7/9/2021,9:51:17 AM,7/09/2021 9:51:17,6.554,137.63,39.3227,47,2659,2725,3343,0,23226,4603,0,0.851,6.473,9:51:17 AM,51.27760063,2.614053,1.6,RTK       ,,,,,,,,,,,,,,,
0,0,0,0.0031,0.0456,0.0639,0.0153,0.0069,0.0165,0.0384,0.0437,0.0505,0.0534,0.0551,0.0411,0.0241,0.013,0.0107,0.0096,0.0155,0.0246,0.0722,0.3295,1.4559,3.3221,4.4136,4.0106,3.3003,3.0616,3.4603,4.2712,4.7322,3.8028,1.7054,0.3173,0.0304,28.2283,1.0035,11.07,0.075,0.9974,0.1,-5,2021,7,9,9,51,18,7/9/2021,9:51:18 AM,7/09/2021 9:51:18,6.554,137.29,38.8164,47,2660,2724,3373,0,23229,4478,0,0.85,6.496,9:51:18 AM,51.27760788,2.61405133,1.7,RTK       ,,,,,,,,,,,,,,,
0,0,0.0011,0.0153,0.0733,0.0619,0.0164,0.0077,0.0135,0.0243,0.0298,0.0404,0.0495,0.0562,0.0458,0.0287,0.0166,0.0136,0.0129,0.0205,0.0322,0.0899,0.3712,1.4908,3.3713,4.4898,4.0829,3.3342,3.0656,3.4293,4.2132,4.7881,4.2023,2.2751,0.5788,0.0873,28.4979,1.0035,11.07,0.075,0.9963,0.09,-5,2021,7,9,9,51,19,7/9/2021,9:51:19 AM,7/09/2021 9:51:19,6.554,140.09,40.4294,47,2677,2734,3340,0,23228,4356,0,0.851,6.449,9:51:19 AM,51.27761633,2.6140495,1.9,RTK       ,,,,,,,,,,,,,,,
0,0,0.0036,0.0266,0.0819,0.0601,0.0179,0.0088,0.0134,0.0214,0.0271,0.0369,0.0457,0.0516,0.0423,0.0274,0.0169,0.0145,0.0147,0.0239,0.0384,0.1052,0.4062,1.5218,3.3791,4.4992,4.0748,3.2919,2.9922,3.3349,4.1499,4.8765,4.5672,2.7339,0.801,0.1447,28.3283,1.0035,11.07,0.075,0.9968,0.09,-5,2021,7,9,9,51,20,7/9/2021,9:51:20 AM,7/09/2021 9:51:20,6.554,142.77,41.4517,46,2671,2734,3350,0,23228,4407,0,0.851,6.473,9:51:20 AM,51.27762515,2.61404917,1.8,RTK       ,,,,,,,,,,,,,,,
0,0,0,0,0,0,0.0038,0.0335,0.1134,0.3558,0.734,0.7874,0.6608,0.5019,0.3453,0.2802,0.2429,0.24,0.2554,0.3317,0.4306,0.6037,0.9667,1.5388,1.9476,1.9232,1.594,1.2529,1.0657,1.0761,1.3698,2.2227,4.2409,8.3025,12.8895,14.7435,18.6552,1.091,11.06,0.075,0.9945,0.09,-5,2021,7,9,9,51,21,7/9/2021,9:51:21 AM,7/09/2021 9:51:21,6.554,202.65,61.0542,47,2599,2719,3354,0,23228,513,0,0.927,3.037,9:51:21 AM,51.2776334,2.614049,1.8,RTK       ,,,,,,,,,,,,,,,
0,0,0,0,0,0,0,0.0017,0.0228,0.2335,0.6987,0.6008,0.4245,0.3287,0.2424,0.2252,0.2052,0.219,0.2047,0.268,0.3512,0.4739,0.7612,1.1716,1.2851,1.2178,1.0613,0.913,0.8062,0.7482,0.7261,0.7338,0.7373,0.6739,0.454,0.1719,13.1908,1.1361,11.07,0.075,0.9945,0.49,-5,2021,7,9,9,51,22,7/9/2021,9:51:22 AM,7/09/2021 9:51:22,6.554,68.58,15.9616,47,2445,2712,3262,0,23290,235,0,0.965,1.417,9:51:22 AM,51.27764158,2.61404867,1.8,RTK       ,,,,,,,,,,,,,,,
0,0,0,0,0,0,0,0,0.0137,0.166,0.5698,0.5304,0.3875,0.3022,0.2121,0.1852,0.1563,0.1674,0.1629,0.2446,0.3666,0.6285,1.3316,2.5034,2.8348,2.4211,1.8138,1.4591,1.4088,1.7107,2.5212,4.146,6.2391,6.6091,3.722,0.8662,22.0977,1.1224,11.07,0.075,0.9945,0.94,-5,2021,7,9,9,51,23,7/9/2021,9:51:23 AM,7/09/2021 9:51:23,6.554,144.19,43.68,47,2384,2733,3222,0,23362,118,0,0.954,1.901,9:51:23 AM,51.27765023,2.61404817,2,RTK       ,,,,,,,,,,,,,,,
0,0,0,0,0,0,0,0,0.0019,0.0711,0.5872,0.7751,0.6509,0.53,0.3386,0.2789,0.2215,0.2199,0.1906,0.2598,0.3542,0.498,0.8499,1.4221,1.6362,1.6326,1.5004,1.3716,1.354,1.5068,1.9038,2.6066,3.3552,3.2994,1.7325,0.3599,18.1551,1.1231,11.06,0.075,0.9945,1.61,-5,2021,7,9,9,51,24,7/9/2021,9:51:24 AM,7/09/2021 9:51:24,6.554,112.16,29.5087,47,2389,2693,3242,0,23466,71,0,0.954,1.876,9:51:24 AM,51.27765908,2.61404817,1.9,RTK       ,,,,,,,,,,,,,,,
0,0,0,0,0,0,0,0,0.0021,0.0822,0.6383,0.7715,0.6019,0.4704,0.2912,0.235,0.1809,0.1805,0.1593,0.2354,0.3478,0.5436,1.0613,1.9524,2.2581,2.1294,1.8219,1.6038,1.6018,1.8889,2.5667,3.7728,5.2504,5.9022,3.8324,0.8372,21.6244,1.1204,11.07,0.075,0.9951,2.22,-5,2021,7,9,9,51,25,7/9/2021,9:51:25 AM,7/09/2021 9:51:25,6.554,138.05,41.2193,47,2482,2612,3284,0,23563,53,0,0.951,1.997,9:51:25 AM,51.2776676,2.61404833,1.9,RTK       ,,,,,,,,,,,,,,,
0,0,0,0,0,0,0,0,0.0016,0.0592,0.4992,0.6854,0.6093,0.5182,0.328,0.2579,0.1896,0.1822,0.158,0.2324,0.3413,0.562,1.1635,2.2195,2.5548,2.3288,1.9918,1.8988,2.2344,3.204,5.0613,7.4846,8.1865,5.4951,1.9282,0.3476,27.2812,1.1135,11.06,0.075,0.9951,2.48,-5,2021,7,9,9,51,26,7/9/2021,9:51:26 AM,7/09/2021 9:51:26,6.554,143.26,50.7231,47,2556,2642,3352,0,23603,46,0,0.945,2.242,9:51:26 AM,51.27767632,2.614048,1.9,RTK       ,,,,,,,,,,,,,,,
0,0,0,0,0,0,0,0,0.0014,0.0611,0.5515,0.7677,0.6991,0.6352,0.4353,0.3639,0.2746,0.2611,0.2138,0.292,0.3982,0.5687,0.9829,1.6077,1.744,1.6388,1.4264,1.245,1.2193,1.465,2.246,4.1032,7.8524,12.5807,11.7718,3.4806,19.0987,1.1142,11.06,0.075,0.9945,2.36,-5,2021,7,9,9,51,27,7/9/2021,9:51:27 AM,7/09/2021 9:51:27,6.554,187.53,58.8873,47,2516,2642,3312,0,23584,52,0,0.947,2.194,9:51:27 AM,51.27768508,2.61404817,1.8,RTK       ,,,,,,,,,,,,,,,
0,0,0,0,0,0,0,0,0.011,0.2247,0.9082,0.6928,0.4125,0.2786,0.1776,0.1579,0.1415,0.1643,0.1673,0.2593,0.4028,0.6164,1.1593,2.0211,2.2335,1.971,1.5061,1.1402,0.952,0.9404,1.0962,1.4438,1.8558,1.8049,0.9233,0.1687,17.6347,1.1299,11.07,0.075,0.9951,2.4,-5,2021,7,9,9,51,28,7/9/2021,9:51:28 AM,7/09/2021 9:51:28,6.554,87.06,23.8313,46,2485,2711,3245,0,23590,43,0,0.959,1.657,9:51:28 AM,51.2776937,2.61404883,1.9,RTK       ,,,,,,,,,,,,,,,
0,0,0,0,0,0,0,0,0,0.024,0.3908,0.8332,0.9585,0.9135,0.5413,0.3723,0.2359,0.1994,0.1537,0.2079,0.2809,0.4323,0.8311,1.5671,1.8975,1.8047,1.4378,1.0601,0.8307,0.774,0.9563,1.6933,4.0463,11.0577,21.313,15.0881,16.703,1.1149,11.06,0.075,0.9951,2.92,-5,2021,7,9,9,51,29,7/9/2021,9:51:29 AM,7/09/2021 9:51:29,6.554,228.21,69.9012,47,2485,2812,3296,0,23673,28,0,0.947,2.193,9:51:29 AM,51.27770288,2.61405017,2,RTK       ,,,,,,,,,,,,,,,
0,0,0,0,0,0,0,0,0.0049,0.1224,0.6936,0.7394,0.5695,0.4552,0.3005,0.2499,0.1972,0.1984,0.1735,0.2386,0.3278,0.4909,0.9399,1.7656,2.1473,2.0839,1.7707,1.5191,1.4784,1.7306,2.4308,3.8865,5.9308,6.6375,3.6197,0.7069,20.6281,1.1183,11.06,0.075,0.9945,3.45,-5,2021,7,9,9,51,30,7/9/2021,9:51:30 AM,7/09/2021 9:51:30,6.554,141.22,41.4093,47,2450,2677,3260,0,23756,30,0,0.95,2.047,9:51:30 AM,51.2777122,2.61405017,1.9,RTK       ,,,,,,,,,,,,,,,
0,0,0,0,0,0,0,0,0.0031,0.0928,0.6409,0.79,0.6355,0.4966,0.3037,0.2312,0.1687,0.16,0.1371,0.1949,0.2772,0.4407,0.8881,1.7308,2.171,2.1872,1.9397,1.716,1.678,1.8415,2.173,2.5423,2.5662,1.9379,0.8402,0.1569,20.8977,1.1258,11.06,0.075,0.9951,4.01,-5,2021,7,9,9,51,31,7/9/2021,9:51:31 AM,7/09/2021 9:51:31,6.554,100.04,28.9411,47,2444,2669,3269,0,23844,21,0,0.956,1.803,9:51:31 AM,51.2777208,2.61405117,1.8,RTK       ,,,,,,,,,,,,,,,
0,0,0,0,0,0,0,0,0.0024,0.0642,0.4684,0.6909,0.6986,0.6725,0.4588,0.3433,0.2305,0.2025,0.1649,0.2243,0.3048,0.471,0.9147,1.741,2.1868,2.217,1.9402,1.6064,1.4057,1.4181,1.7994,2.8331,4.9942,7.6723,6.8688,1.9917,20.2264,1.1197,11.05,0.075,0.9939,4.01,-5,2021,7,9,9,51,32,7/9/2021,9:51:32 AM,7/09/2021 9:51:32,6.554,153.07,44.5864,47,2491,2902,3249,0,23844,11,0,0.952,1.975,9:51:32 AM,51.27772955,2.61405333,2,RTK       ,,,,,,,,,,,,,,,
0,0,0,0,0,0,0,0,0.007,0.1967,0.9585,0.7614,0.4756,0.3489,0.2331,0.2098,0.1772,0.1899,0.1671,0.2391,0.3422,0.5205,1.0355,1.991,2.4405,2.4929,2.2952,2.1011,1.9651,1.9127,1.8028,1.5502,1.1434,0.6683,0.2604,0.0395,22.8638,1.1245,11.07,0.075,0.9945,4.66,-5,2021,7,9,9,51,33,7/9/2021,9:51:33 AM,7/09/2021 9:51:33,6.554,81.11,26.5254,46,2534,2951,3273,0,23946,9,0,0.955,1.828,9:51:33 AM,51.27773918,2.61405483,2.2,RTK       ,,,,,,,,,,,,,,,
0,0,0,0,0,0,0,0,0.01,0.1577,0.6164,0.572,0.4131,0.3184,0.213,0.1798,0.1461,0.1541,0.1456,0.2119,0.3079,0.5133,1.1244,2.383,3.0817,2.8995,2.2395,1.7455,1.5387,1.5981,1.835,2.2433,2.5911,2.3453,1.2645,0.2709,22.4047,1.1279,11.07,0.075,0.9945,5.38,-5,2021,7,9,9,51,34,7/9/2021,9:51:34 AM,7/09/2021 9:51:34,6.554,104,31.1198,47,2497,2867,3286,0,24059,8,0,0.958,1.706,9:51:34 AM,51.27774848,2.61405583,1.9,RTK       ,,,,,,,,,,,,,,,
0,0,0,0,0,0,0,0,0.0062,0.1319,0.663,0.6776,0.5245,0.4283,0.2936,0.2447,0.1869,0.1802,0.1523,0.2126,0.2968,0.4847,1.0333,2.0726,2.5022,2.2456,1.693,1.2658,1.0817,1.1367,1.4957,2.3451,3.7392,4.9974,4.0131,1.2893,19.0099,1.1197,11.06,0.075,0.9951,5.99,-5,2021,7,9,9,51,35,7/9/2021,9:51:35 AM,7/09/2021 9:51:35,6.554,130.33,35.394,47,2526,2832,3346,0,24154,8,0,0.951,2.022,9:51:35 AM,51.27775725,2.61405817,2,RTK       ,,,,,,,,,,,,,,,
0,0,0,0,0,0,0,0,0.0031,0.0705,0.4117,0.5382,0.5137,0.5002,0.3754,0.3151,0.2314,0.2122,0.1715,0.2248,0.2936,0.444,0.8574,1.6708,2.1777,2.3256,2.2177,2.1228,2.2636,2.6574,3.4004,4.2425,4.8305,4.0923,2.1146,0.3793,23.9988,1.119,11.06,0.075,0.9945,6.24,-5,2021,7,9,9,51,36,7/9/2021,9:51:36 AM,7/09/2021 9:51:36,6.554,131.12,39.6582,47,2517,2786,3299,0,24194,8,0,0.951,2.023,9:51:36 AM,51.27776655,2.61406133,2.1,RTK       ,,,,,,,,,,,,,,,
0,0,0,0,0,0,0,0,0.0023,0.0827,0.6268,0.7715,0.6654,0.5892,0.4083,0.3429,0.2634,0.2536,0.2097,0.2795,0.3722,0.5192,0.931,1.7192,2.1541,2.247,2.0761,1.8618,1.7933,1.9327,2.3806,3.1298,3.9006,3.8311,2.0439,0.4456,22.4825,1.1224,11.06,0.075,0.9951,6.27,-5,2021,7,9,9,51,37,7/9/2021,9:51:37 AM,7/09/2021 9:51:37,6.554,115.25,35.8335,47,2502,2770,3307,0,24199,8,0,0.953,1.924,9:51:37 AM,51.27777625,2.61406283,2.1,RTK       ,,,,,,,,,,,,,,,
0,0,0,0,0,0,0,0,0,0.0425,0.4984,0.8067,0.786,0.7088,0.4453,0.3369,0.2329,0.2098,0.169,0.2364,0.3305,0.5136,1.0248,1.9804,2.369,2.2405,1.8898,1.6349,1.63,1.9935,2.949,4.6017,5.985,4.6316,1.5022,0.1797,23.0287,1.1163,11.06,0.075,0.9945,6.41,-5,2021,7,9,9,51,38,7/9/2021,9:51:38 AM,7/09/2021 9:51:38,6.554,123.12,39.9287,47,2511,2769,3315,0,24221,8,0,0.948,2.12,9:51:38 AM,51.27778512,2.61406483,1.9,RTK       ,,,,,,,,,,,,,,,
0,0,0,0,0,0,0,0,0.0038,0.0851,0.4889,0.5947,0.52,0.4552,0.3164,0.2651,0.2068,0.203,0.1752,0.2377,0.3221,0.5006,1.0103,1.9901,2.4582,2.3111,1.8371,1.4408,1.262,1.3548,1.7795,2.6866,3.7917,3.761,1.7962,0.3757,19.8185,1.1286,11.06,0.075,0.9939,6.43,-5,2021,7,9,9,51,39,7/9/2021,9:51:39 AM,7/09/2021 9:51:39,6.554,116.49,32.2295,46,2509,2751,3301,0,24224,8,0,0.959,1.659,9:51:39 AM,51.2777941,2.61406867,2,RTK       ,,,,,,,,,,,,,,,
0,0,0,0,0,0,0,0,0.003,0.0895,0.5851,0.6921,0.5524,0.4558,0.312,0.2694,0.2166,0.2138,0.1822,0.2474,0.336,0.4759,0.8238,1.3597,1.4983,1.41,1.2427,1.1368,1.1727,1.4186,1.99,3.0445,4.2916,4.4801,2.4233,0.4665,16.6838,1.1299,11.07,0.075,0.9945,6.39,-5,2021,7,9,9,51,40,7/9/2021,9:51:40 AM,7/09/2021 9:51:40,6.554,128.5,31.3899,46,2500,2737,3301,0,24217,9,0,0.96,1.634,9:51:40 AM,51.27780365,2.61407267,2.2,RTK       ,,,,,,,,,,,,,,,
0,0,0,0,0,0,0,0,0.0038,0.1014,0.6174,0.7188,0.5748,0.4755,0.3261,0.2754,0.216,0.2056,0.1698,0.2267,0.3024,0.4368,0.8069,1.4746,1.8037,1.8307,1.6853,1.5807,1.647,1.9776,2.6715,3.8147,5.2081,5.8476,4.167,1.1196,20.1285,1.1217,11.06,0.075,0.9951,6.53,-5,2021,7,9,9,51,41,7/9/2021,9:51:41 AM,7/09/2021 9:51:41,6.554,144.68,40.2856,47,2510,2732,3326,0,24239,8,0,0.952,1.949,9:51:41 AM,51.27781353,2.6140755,2.1,RTK       ,,,,,,,,,,,,,,,
0,0,0,0,0,0,0,0,0.0044,0.1097,0.64,0.6991,0.5335,0.414,0.2635,0.2096,0.1576,0.1532,0.1353,0.2034,0.3056,0.5277,1.1766,2.4207,2.9713,2.6918,2.063,1.6263,1.4714,1.6015,1.9924,2.6367,3.1771,2.7992,1.3654,0.2734,22.3716,1.1245,11.06,0.075,0.9939,6.58,-5,2021,7,9,9,51,42,7/9/2021,9:51:42 AM,7/09/2021 9:51:42,6.554,106.36,32.6234,46,2512,2724,3309,0,24247,8,0,0.956,1.804,9:51:42 AM,51.27782257,2.61407867,1.8,RTK       ,,,,,,,,,,,,,,,
0,0,0,0,0,0,0,0,0.0068,0.1467,0.7195,0.6936,0.4924,0.3746,0.2541,0.2256,0.1926,0.2006,0.176,0.2369,0.319,0.4752,0.9124,1.6899,1.9885,1.8199,1.4358,1.1625,1.0709,1.1704,1.398,1.6816,1.6948,1.2101,0.4804,0.0846,17.1619,1.1279,11.07,0.075,0.9945,6.48,-5,2021,7,9,9,51,43,7/9/2021,9:51:43 AM,7/09/2021 9:51:43,6.554,84.55,22.3134,46,2501,2727,3293,0,24231,9,0,0.958,1.706,9:51:43 AM,51.27783102,2.61408383,2,RTK       ,,,,,,,,,,,,,,,
0,0,0,0,0,0,0,0,0.0011,0.0469,0.4618,0.6975,0.6714,0.6187,0.4089,0.3256,0.237,0.2229,0.1861,0.2623,0.3697,0.5591,1.0316,1.8177,2.1211,2.1383,1.9984,1.849,1.7973,1.8921,2.1454,2.4588,2.5462,1.955,0.8191,0.1322,21.8599,1.1272,11.06,0.075,0.9939,6.48,-5,2021,7,9,9,51,44,7/9/2021,9:51:44 AM,7/09/2021 9:51:44,6.554,98.04,29.7711,47,2500,2722,3304,0,24231,9,0,0.958,1.707,9:51:44 AM,51.27784055,2.6140885,2.2,RTK       ,,,,,,,,,,,,,,,
0,0,0,0,0,0,0,0,0.0027,0.1024,0.7493,0.8532,0.6219,0.4591,0.2752,0.2149,0.1594,0.1505,0.1231,0.1713,0.2383,0.3739,0.8049,1.7464,2.3132,2.2271,1.7135,1.2811,1.0744,1.1427,1.5309,2.4859,3.8805,4.3168,2.0383,0.3154,18.3294,1.1292,11.06,0.075,0.9933,6.63,-5,2021,7,9,9,51,45,7/9/2021,9:51:45 AM,7/09/2021 9:51:45,6.554,116.21,31.3661,47,2511,2707,3323,0,24255,8,0,0.961,1.611,9:51:45 AM,51.27785072,2.61409183,2.1,RTK       ,,,,,,,,,,,,,,,
0,0,0,0,0,0,0,0,0.0023,0.0857,0.6576,0.7494,0.5637,0.4179,0.2457,0.1916,0.1457,0.1471,0.134,0.2082,0.3234,0.5434,1.1433,2.2007,2.5772,2.3595,1.8777,1.4951,1.3471,1.4912,2.0248,3.2528,5.1871,6.2398,3.7726,0.7331,20.9323,1.121,11.07,0.075,0.9945,6.67,-5,2021,7,9,9,51,46,7/9/2021,9:51:46 AM,7/09/2021 9:51:46,6.554,136.66,40.1178,46,2521,2713,3324,0,24261,8,0,0.952,1.949,9:51:46 AM,51.27785963,2.61409633,2,RTK       ,,,,,,,,,,,,,,,
0,0,0,0,0,0,0,0,0.0037,0.0973,0.5799,0.6529,0.5225,0.4269,0.2775,0.2182,0.1576,0.1465,0.1217,0.1703,0.2379,0.3751,0.7653,1.5392,2.0122,2.1352,2.0239,1.9378,2.0175,2.3653,3.077,4.1854,5.1259,4.5456,2.3025,0.4614,21.8614,1.1176,11.06,0.075,0.9939,6.54,-5,2021,7,9,9,51,47,7/9/2021,9:51:47 AM,7/09/2021 9:51:47,6.554,135.83,38.4824,46,2514,2718,3298,0,24241,8,0,0.95,2.048,9:51:47 AM,51.27786848,2.61410267,2.1,RTK       ,,,,,,,,,,,,,,,
0,0,0,0,0,0,0,0,0.0024,0.0782,0.5655,0.7155,0.5796,0.4429,0.2576,0.1891,0.1353,0.1307,0.1173,0.1788,0.2722,0.4721,1.0605,2.2244,2.746,2.4878,1.9019,1.4799,1.3478,1.5575,2.241,3.7009,5.7775,6.3517,3.2809,0.5434,21.184,1.1231,11.06,0.075,0.9945,6.52,-5,2021,7,9,9,51,48,7/9/2021,9:51:48 AM,7/09/2021 9:51:48,6.554,138.41,40.8384,47,2502,2712,3305,0,24238,8,0,0.954,1.876,9:51:48 AM,51.27787813,2.6141075,2.1,RTK       ,,,,,,,,,,,,,,,
0,0,0,0,0,0,0,0,0.0025,0.0828,0.5817,0.6946,0.5565,0.4469,0.2835,0.2304,0.1791,0.1812,0.1628,0.2426,0.3615,0.5742,1.1329,2.0807,2.4054,2.2357,1.8349,1.5325,1.4871,1.818,2.6551,3.9988,4.7711,3.5695,1.2101,0.1594,21.7626,1.1224,11.07,0.075,0.9939,6.63,-5,2021,7,9,9,51,49,7/9/2021,9:51:49 AM,7/09/2021 9:51:49,6.554,118.58,35.4713,47,2510,2708,3323,0,24254,8,0,0.954,1.877,9:51:49 AM,51.27788792,2.61411183,2.2,RTK       ,,,,,,,,,,,,,,,
0,0,0,0,0,0,0,0,0.0022,0.0657,0.4866,0.6823,0.6249,0.5592,0.3853,0.3212,0.2469,0.2351,0.1967,0.2609,0.3453,0.5158,0.9911,1.9564,2.6099,2.8569,2.7411,2.535,2.453,2.5895,2.9921,3.5705,3.8796,3.2298,1.6128,0.3334,26.6531,1.1176,11.05,0.075,0.9951,6.64,-5,2021,7,9,9,51,50,7/9/2021,9:51:50 AM,7/09/2021 9:51:50,6.554,115.54,39.2793,46,2519,2719,3320,0,24256,8,0,0.949,2.095,9:51:50 AM,51.27789728,2.6141185,2.2,RTK       ,,,,,,,,,,,,,,,
0,0,0,0,0,0,0,0,0.0014,0.0512,0.4662,0.6942,0.6527,0.5772,0.3778,0.3013,0.2228,0.2065,0.1697,0.2303,0.3121,0.4685,0.8755,1.6187,2.0398,2.2082,2.1565,2.0423,1.9908,2.1171,2.4945,3.1599,3.9735,4.2122,2.8532,0.6637,22.2753,1.1204,11.06,0.075,0.9939,6.56,-5,2021,7,9,9,51,51,7/9/2021,9:51:51 AM,7/09/2021 9:51:51,6.554,126.3,37.1379,46,2508,2722,3305,0,24243,8,0,0.952,1.95,9:51:51 AM,51.27790655,2.61412517,2.1,RTK       ,,,,,,,,,,,,,,,
0,0,0,0,0,0,0,0,0.0033,0.1038,0.6339,0.645,0.4647,0.3536,0.226,0.1916,0.1553,0.1603,0.1427,0.2076,0.3015,0.4642,0.9125,1.7426,2.1286,2.0882,1.8093,1.5983,1.5878,1.883,2.5952,3.9407,5.4107,5.2035,2.6009,0.4862,20.399,1.1258,11.06,0.075,0.9939,6.55,-5,2021,7,9,9,51,52,7/9/2021,9:51:52 AM,7/09/2021 9:51:52,6.554,137.62,38.0412,47,2507,2713,3308,0,24242,8,0,0.957,1.756,9:51:52 AM,51.277916,2.61413083,2.2,RTK       ,,,,,,,,,,,,,,,
0,0,0,0,0,0,0,0,0.0016,0.0622,0.5218,0.6771,0.577,0.4747,0.2972,0.2336,0.1708,0.1616,0.1347,0.1934,0.2771,0.4735,1.1035,2.4703,3.2114,2.9715,2.2161,1.6134,1.3069,1.3276,1.7362,2.9983,5.973,10.7166,11.1696,3.5828,22.2132,1.1183,11.04,0.075,0.9939,6.57,-5,2021,7,9,9,51,53,7/9/2021,9:51:53 AM,7/09/2021 9:51:53,6.554,176.14,56.6535,46,2510,2717,3311,0,24246,8,0,0.951,2.023,9:51:53 AM,51.27792585,2.61413683,2.4,RTK       ,,,,,,,,,,,,,,,
0,0,0,0,0,0,0,0,0.0025,0.0866,0.6634,0.8106,0.6387,0.491,0.2992,0.2373,0.1821,0.1794,0.1568,0.2306,0.339,0.5496,1.1226,2.1183,2.441,2.1903,1.7118,1.3538,1.2223,1.3928,2.0624,3.897,7.8134,12.194,8.9929,1.9516,20.4821,1.1135,11.05,0.075,0.9951,6.6,-5,2021,7,9,9,51,54,7/9/2021,9:51:54 AM,7/09/2021 9:51:54,6.554,173.7,55.3311,46,2508,2718,3314,0,24250,8,0,0.945,2.242,9:51:54 AM,51.27793563,2.61414383,2.2,RTK       ,,,,,,,,,,,,,,,
0,0,0,0,0,0,0,0,0.0055,0.1242,0.6132,0.6134,0.4589,0.3728,0.2583,0.2228,0.1777,0.1782,0.1545,0.2143,0.2968,0.4395,0.8191,1.489,1.7988,1.8475,1.7697,1.7399,1.859,2.2014,2.839,3.7767,4.4415,3.6982,1.5187,0.25,20.4935,1.1265,11.06,0.075,0.9945,6.57,-5,2021,7,9,9,51,55,7/9/2021,9:51:55 AM,7/09/2021 9:51:55,6.554,126.84,34.1785,46,2510,2717,3316,0,24246,8,0,0.957,1.755,9:51:55 AM,51.27794528,2.61414983,2.2,RTK       ,,,,,,,,,,,,,,,
0,0,0,0,0,0,0,0,0.0039,0.1024,0.6386,0.746,0.5879,0.4687,0.3135,0.265,0.2099,0.1994,0.1611,0.2053,0.2607,0.3717,0.6885,1.3291,1.8098,2.1328,2.3007,2.483,2.8178,3.4931,4.5365,5.9504,6.6687,5.0274,1.8118,0.3012,26.1254,1.117,11.04,0.075,0.9939,6.5,-5,2021,7,9,9,51,56,7/9/2021,9:51:56 AM,7/09/2021 9:51:56,6.554,140.24,45.8847,47,2506,2712,3305,0,24235,9,0,0.95,2.072,9:51:56 AM,51.27795525,2.614156,2.4,RTK       ,,,,,,,,,,,,,,,
0,0,0,0,0,0,0,0,0,0.0489,0.5776,0.868,0.7965,0.7011,0.4473,0.351,0.2474,0.2179,0.1652,0.2208,0.2949,0.4436,0.8868,1.8236,2.4337,2.5932,2.3813,2.1244,2.0523,2.2811,2.9751,4.271,5.7081,5.3602,2.3435,0.309,24.9317,1.1135,11.05,0.075,0.9939,6.5,-5,2021,7,9,9,51,57,7/9/2021,9:51:57 AM,7/09/2021 9:51:57,6.554,126.4,42.9234,47,2501,2717,3303,0,24235,9,0,0.947,2.195,9:51:57 AM,51.27796568,2.61416283,2.5,RTK       ,,,,,,,,,,,,,,,
0,0,0,0,0,0,0,0,0.0043,0.1213,0.7413,0.8268,0.6408,0.5026,0.3172,0.2473,0.1782,0.164,0.1331,0.1878,0.2647,0.4493,1.035,2.3391,3.1876,3.1979,2.6149,2.038,1.7405,1.8147,2.2732,3.0795,3.4342,2.427,0.7423,0.0967,25.0196,1.1135,11.06,0.075,0.9933,6.5,-5,2021,7,9,9,51,58,7/9/2021,9:51:58 AM,7/09/2021 9:51:58,6.554,101.15,34.799,46,2500,2718,3308,0,24235,9,0,0.947,2.171,9:51:58 AM,51.27797545,2.61416967,2.1,RTK       ,,,,,,,,,,,,,,,
0,0,0,0,0,0,0,0,0.0035,0.1004,0.6464,0.7574,0.593,0.4571,0.2812,0.2183,0.1644,0.161,0.1423,0.2076,0.3029,0.4853,0.9835,1.8889,2.2933,2.2194,1.8975,1.6285,1.5474,1.686,2.0257,2.4759,2.6854,2.1386,0.9529,0.1611,20.691,1.1245,11.05,0.075,0.9945,6.54,-5,2021,7,9,9,51,59,7/9/2021,9:51:59 AM,7/09/2021 9:51:59,6.554,100.9,29.105,46,2503,2711,3320,0,24241,9,0,0.955,1.828,9:51:59 AM,51.27798483,2.614177,2.4,RTK       ,,,,,,,,,,,,,,,
0,0,0,0,0,0,0,0,0.0013,0.0531,0.4782,0.6734,0.6091,0.5327,0.3538,0.2934,0.2236,0.21,0.169,0.2221,0.2909,0.4191,0.7665,1.4369,1.862,2.1038,2.2332,2.4337,2.8824,3.7358,5.0649,6.5035,6.9707,5.4779,2.7148,0.6116,27.0489,1.1163,11.06,0.075,0.9945,6.51,-5,2021,7,9,9,52,0,7/9/2021,9:52:00 AM,7/09/2021 9:52:00,6.554,147.39,49.3274,46,2504,2721,3299,0,24236,8,0,0.948,2.12,9:52:00 AM,51.27799538,2.61418483,2.6,RTK       ,,,,,,,,,,,,,,,
0,0,0,0,0,0,0,0,0.0023,0.073,0.5338,0.7001,0.5883,0.4841,0.3119,0.2487,0.1854,0.1737,0.1444,0.1972,0.2692,0.4096,0.8009,1.5477,1.9288,1.8971,1.5975,1.3105,1.201,1.339,1.8362,2.81,3.9333,3.7708,1.6945,0.2744,17.7804,1.1224,11.06,0.075,0.9945,6.38,-5,2021,7,9,9,52,1,7/9/2021,9:52:01 AM,7/09/2021 9:52:01,6.554,118.89,30.2636,46,2492,2726,3284,0,24215,9,0,0.954,1.901,9:52:01 AM,51.27800587,2.61419233,2.4,RTK       ,,,,,,,,,,,,,,,
0,0,0,0,0,0,0,0,0.0066,0.1685,0.8724,0.8065,0.554,0.4091,0.2601,0.2153,0.1689,0.1697,0.1472,0.2119,0.3046,0.4993,1.1065,2.3867,3.1012,2.9736,2.3573,1.856,1.6161,1.6946,2.1021,3.1127,4.9405,6.8426,5.407,1.4369,23.9882,1.1129,11.05,0.075,0.9951,6.4,-5,2021,7,9,9,52,2,7/9/2021,9:52:02 AM,7/09/2021 9:52:02,6.554,138.96,45.7279,46,2497,2718,3320,0,24219,9,0,0.945,2.267,9:52:02 AM,51.27801583,2.6141995,2.4,RTK       ,,,,,,,,,,,,,,,
0,0,0,0,0,0,0,0,0,0.0408,0.4272,0.687,0.6787,0.6159,0.3993,0.3154,0.2301,0.2146,0.1783,0.2486,0.3459,0.5465,1.1,2.1674,2.7038,2.6346,2.2056,1.8166,1.6818,1.8837,2.6219,4.2831,6.811,8.1035,4.7328,0.8639,23.7437,1.1163,11.06,0.075,0.9933,6.54,-5,2021,7,9,9,52,3,7/9/2021,9:52:03 AM,7/09/2021 9:52:03,6.554,146.96,48.5377,46,2498,2713,3315,0,24241,9,0,0.949,2.073,9:52:03 AM,51.2780258,2.6142075,2.4,RTK       ,,,,,,,,,,,,,,,
0,0,0,0,0,0,0,0,0.0014,0.053,0.4679,0.6745,0.6242,0.537,0.3323,0.2515,0.1807,0.1762,0.1589,0.2424,0.3694,0.6244,1.3082,2.5648,3.1131,2.9862,2.4878,2.0263,1.8054,1.884,2.3663,3.4112,5.1378,6.6302,5.0989,1.303,25.2359,1.1176,11.06,0.075,0.9933,6.38,-5,2021,7,9,9,52,4,7/9/2021,9:52:04 AM,7/09/2021 9:52:04,6.554,139.59,46.8171,46,2486,2720,3281,0,24215,9,0,0.951,2.024,9:52:04 AM,51.27803587,2.61421533,2.5,RTK       ,,,,,,,,,,,,,,,
0,0,0,0,0,0,0,0,0.004,0.1063,0.6478,0.7488,0.6124,0.5028,0.3212,0.2466,0.176,0.1644,0.1387,0.1981,0.2825,0.4607,0.9841,2.0375,2.6509,2.6811,2.3501,2.1007,2.1614,2.7477,4.0666,6.0851,7.2535,5.7027,2.4437,0.3947,26.3904,1.106,11.05,0.075,0.9945,6.28,-5,2021,7,9,9,52,5,7/9/2021,9:52:05 AM,7/09/2021 9:52:05,6.554,139.3,48.27,47,2490,2721,3298,0,24200,9,0,0.94,2.489,9:52:05 AM,51.27804685,2.6142225,2.6,RTK       ,,,,,,,,,,,,,,,
0,0,0,0,0,0,0,0,0.0019,0.0698,0.5424,0.7048,0.6012,0.5025,0.321,0.2502,0.1789,0.1623,0.1285,0.1726,0.2318,0.3591,0.7358,1.5223,2.0326,2.1569,1.9648,1.7248,1.6092,1.6432,1.7655,1.8094,1.5231,0.8904,0.2892,0.0398,19.3821,1.1286,11.05,0.075,0.9939,6.34,-5,2021,7,9,9,52,6,7/9/2021,9:52:06 AM,7/09/2021 9:52:06,6.554,87.33,23.934,47,2496,2714,3309,0,24209,9,0,0.959,1.659,9:52:06 AM,51.2780576,2.614231,2.5,RTK       ,,,,,,,,,,,,,,,
0,0,0,0,0,0,0,0,0.0028,0.1027,0.7354,0.794,0.579,0.4399,0.2812,0.2394,0.1913,0.19,0.1614,0.2281,0.322,0.5019,1.0456,2.2101,2.9567,3.0236,2.5971,2.2078,2.0749,2.264,2.721,3.2491,3.1241,1.8916,0.5278,0.0557,25.8699,1.117,11.05,0.075,0.9939,6.33,-5,2021,7,9,9,52,7,7/9/2021,9:52:07 AM,7/09/2021 9:52:07,6.554,101.04,34.7182,47,2490,2717,3302,0,24208,9,0,0.95,2.072,9:52:07 AM,51.2780671,2.61424017,2.3,RTK       ,,,,,,,,,,,,,,,
0,0,0,0,0,0,0,0,0.0026,0.0707,0.4584,0.5672,0.5014,0.4501,0.3103,0.2493,0.1786,0.1625,0.1317,0.1791,0.2431,0.3817,0.7957,1.6938,2.3137,2.4059,2.0627,1.6785,1.4664,1.485,1.8298,2.637,4.018,5.2987,4.4567,1.3352,19.6182,1.1258,11.05,0.075,0.9939,6.29,-5,2021,7,9,9,52,8,7/9/2021,9:52:08 AM,7/09/2021 9:52:08,6.554,141.96,37.3638,47,2488,2722,3299,0,24202,9,0,0.957,1.756,9:52:08 AM,51.27807737,2.61424867,2.6,RTK       ,,,,,,,,,,,,,,,
0,0,0,0,0,0,0,0,0.0018,0.0733,0.6308,0.7993,0.6339,0.4823,0.2845,0.2217,0.1668,0.1607,0.1353,0.1876,0.2596,0.4052,0.8408,1.7987,2.4957,2.7674,2.6775,2.5395,2.5525,2.8455,3.4701,4.3947,4.9503,3.9618,1.6607,0.2931,26.4305,1.117,11.05,0.075,0.9933,6.22,-5,2021,7,9,9,52,9,7/9/2021,9:52:09 AM,7/09/2021 9:52:09,6.554,125.33,41.691,46,2482,2713,3296,0,24191,9,0,0.95,2.049,9:52:09 AM,51.27808865,2.61425717,2.7,RTK       ,,,,,,,,,,,,,,,
0,0,0,0,0,0,0,0,0.0018,0.0627,0.521,0.7313,0.6767,0.6184,0.4299,0.359,0.2726,0.2573,0.2138,0.2895,0.3916,0.569,1.0172,1.7573,2.0359,2.0648,1.9964,1.9457,2.0289,2.3195,2.9309,3.7434,4.306,3.6351,1.7115,0.31,23.4912,1.1163,11.06,0.075,0.9933,6.2,-5,2021,7,9,9,52,10,7/9/2021,9:52:10 AM,7/09/2021 9:52:10,6.554,117.36,37.197,46,2480,2715,3294,0,24187,9,0,0.949,2.073,9:52:10 AM,51.27809932,2.61426583,2.5,RTK       ,,,,,,,,,,,,,,,
0,0,0,0,0,0,0,0,0.0046,0.1168,0.6558,0.6992,0.5398,0.4379,0.2942,0.2432,0.1858,0.1779,0.1479,0.1998,0.2696,0.4067,0.8243,1.6967,2.2248,2.2043,1.807,1.4241,1.2151,1.2369,1.5273,2.2454,3.2986,3.7672,2.193,0.5424,18.5397,1.1251,11.05,0.075,0.9945,6.2,-5,2021,7,9,9,52,11,7/9/2021,9:52:11 AM,7/09/2021 9:52:11,6.554,115.92,30.5865,46,2484,2727,3299,0,24188,9,0,0.956,1.803,9:52:11 AM,51.27810972,2.6142745,2.6,RTK       ,,,,,,,,,,,,,,,
0,0,0,0,0,0,0,0,0.0057,0.1118,0.583,0.6863,0.5806,0.4996,0.354,0.2984,0.2341,0.2239,0.1891,0.2414,0.3079,0.4298,0.7548,1.3734,1.791,2.0085,2.0077,1.8892,1.7915,1.7456,1.7526,1.7367,1.6023,1.2089,0.5727,0.1162,19.8599,1.1313,11.05,0.075,0.9933,6.18,-5,2021,7,9,9,52,12,7/9/2021,9:52:12 AM,7/09/2021 9:52:12,6.554,89.33,25.097,46,2477,2727,3302,0,24184,9,0,0.962,1.538,9:52:12 AM,51.27812043,2.6142835,2.6,RTK       ,,,,,,,,,,,,,,,
0,0,0,0,0,0,0,0,0.0016,0.0537,0.4562,0.6647,0.6278,0.5409,0.3271,0.2301,0.1497,0.1308,0.1069,0.1558,0.2268,0.4026,0.9481,2.1537,2.9393,2.9612,2.5423,2.24,2.2235,2.4568,2.8691,3.4029,3.7987,3.3953,2.0059,0.498,25.4087,1.1251,11.06,0.075,0.9939,6.1,-5,2021,7,9,9,52,13,7/9/2021,9:52:13 AM,7/09/2021 9:52:13,6.554,120.5,38.5096,46,2478,2713,3286,0,24171,9,0,0.956,1.78,9:52:13 AM,51.27813132,2.614293,2.7,RTK       ,,,,,,,,,,,,,,,
0,0,0,0,0,0,0,0,0.0046,0.1071,0.6056,0.6701,0.521,0.4088,0.2675,0.2236,0.1801,0.1803,0.1568,0.2053,0.2683,0.3838,0.705,1.3279,1.7017,1.7924,1.7006,1.669,1.8621,2.4231,3.4252,4.7807,5.6619,4.7818,2.3046,0.5342,20.7899,1.1251,11.05,0.075,0.9945,6.06,-5,2021,7,9,9,52,14,7/9/2021,9:52:14 AM,7/09/2021 9:52:14,6.554,141.05,38.8534,46,2480,2724,3283,0,24165,9,0,0.956,1.803,9:52:14 AM,51.27814213,2.61430217,2.6,RTK       ,,,,,,,,,,,,,,,
0,0,0,0,0,0,0,0,0.0027,0.0791,0.5324,0.6505,0.5303,0.4334,0.2862,0.2426,0.198,0.2058,0.1884,0.2719,0.3919,0.6016,1.1323,2.0062,2.2866,2.1774,1.9353,1.8138,1.909,2.2769,2.9891,3.9297,4.5958,3.8507,1.7946,0.2873,23.1414,1.1204,11.05,0.075,0.9939,6.1,-5,2021,7,9,9,52,15,7/9/2021,9:52:15 AM,7/09/2021 9:52:15,6.554,123.59,37.5993,47,2475,2724,3305,0,24172,9,0,0.952,1.95,9:52:15 AM,51.27815332,2.61431117,2.8,RTK       ,,,,,,,,,,,,,,,
0,0,0,0,0,0,0,0,0.0048,0.0986,0.5222,0.6155,0.5159,0.4301,0.2909,0.2426,0.1911,0.1887,0.1642,0.2218,0.2992,0.4603,0.8919,1.7081,2.1709,2.2675,2.0813,1.8248,1.6727,1.7347,2.0732,2.6558,3.129,2.8198,1.4295,0.3215,20.671,1.1251,11.05,0.075,0.9933,6.05,-5,2021,7,9,9,52,16,7/9/2021,9:52:16 AM,7/09/2021 9:52:16,6.554,112.25,31.0266,46,2467,2709,3296,0,24163,10,0,0.957,1.756,9:52:16 AM,51.27816452,2.6143205,2.8,RTK       ,,,,,,,,,,,,,,,
0,0,0,0,0,0,0,0,0.0017,0.0771,0.6596,0.8022,0.6118,0.4586,0.2733,0.2174,0.1652,0.1606,0.1369,0.1996,0.2909,0.4726,1.0137,2.122,2.7131,2.6749,2.2715,1.912,1.7404,1.7853,1.9867,2.2564,2.2393,1.6039,0.6146,0.0899,22.7471,1.1204,11.04,0.075,0.9945,5.97,-5,2021,7,9,9,52,17,7/9/2021,9:52:17 AM,7/09/2021 9:52:17,6.554,94.04,29.5514,47,2470,2718,3282,0,24151,10,0,0.952,1.974,9:52:17 AM,51.27817555,2.61432967,2.7,RTK       ,,,,,,,,,,,,,,,
0,0,0,0,0,0,0,0,0.0068,0.1439,0.7191,0.7562,0.5795,0.4711,0.3225,0.2663,0.2033,0.194,0.1643,0.226,0.3109,0.4654,0.8807,1.6227,2.0011,2.0699,1.9529,1.866,1.9291,2.1616,2.4884,2.7319,2.6726,2.1417,1.1426,0.3042,21.8017,1.1258,11.05,0.075,0.9939,5.98,-5,2021,7,9,9,52,18,7/9/2021,9:52:18 AM,7/09/2021 9:52:18,6.554,104.39,30.7948,46,2465,2724,3284,0,24152,10,0,0.957,1.756,9:52:18 AM,51.2781868,2.614339,2.8,RTK       ,,,,,,,,,,,,,,,
0,0,0,0,0,0,0,0,0.0019,0.0643,0.5015,0.6668,0.5696,0.4675,0.2973,0.2418,0.188,0.1876,0.1674,0.2451,0.3585,0.5839,1.1975,2.3271,2.8311,2.7558,2.3961,2.109,2.0433,2.2118,2.6096,3.1347,3.3788,2.724,1.2319,0.2395,25.0225,1.1197,11.05,0.075,0.9939,6.03,-5,2021,7,9,9,52,19,7/9/2021,9:52:19 AM,7/09/2021 9:52:19,6.554,109.81,35.7312,47,2469,2711,3299,0,24160,10,0,0.952,1.975,9:52:19 AM,51.2781984,2.61434833,2.8,RTK       ,,,,,,,,,,,,,,,
0,0,0,0,0,0,0,0,0.0025,0.0709,0.5116,0.6926,0.6201,0.5264,0.3366,0.2627,0.1933,0.1869,0.1655,0.2484,0.372,0.6587,1.4827,3.054,3.7269,3.4156,2.71,2.2166,2.0924,2.3449,2.999,4.1247,5.2403,5.2213,3.0236,0.7191,28.8903,1.1115,11.04,0.075,0.9939,5.92,-5,2021,7,9,9,52,20,7/9/2021,9:52:20 AM,7/09/2021 9:52:20,6.554,125.98,47.2192,46,2468,2714,3289,0,24144,10,0,0.945,2.269,9:52:20 AM,51.27820965,2.6143585,2.7,RTK       ,,,,,,,,,,,,,,,
0,0,0,0,0,0,0,0,0.0047,0.1108,0.6153,0.6756,0.5248,0.4218,0.2836,0.2362,0.1836,0.1787,0.1546,0.2168,0.3038,0.4744,0.9495,1.8262,2.216,2.0668,1.6475,1.3197,1.1998,1.3128,1.7115,2.5213,3.6098,4.1051,2.7891,0.7547,18.6345,1.1231,11.06,0.075,0.9939,5.92,-5,2021,7,9,9,52,21,7/9/2021,9:52:21 AM,7/09/2021 9:52:21,6.554,123.15,32.4144,46,2455,2720,3266,0,24144,11,0,0.955,1.853,9:52:21 AM,51.27822085,2.6143685,2.8,RTK       ,,,,,,,,,,,,,,,
0,0,0,0,0,0,0,0,0.0029,0.0829,0.557,0.704,0.6122,0.5329,0.3619,0.2922,0.2139,0.1955,0.1578,0.2136,0.2887,0.4458,0.8926,1.7946,2.389,2.6134,2.5332,2.3935,2.3534,2.471,2.72,2.9057,2.6447,1.7321,0.6579,0.1114,24.822,1.1231,11.05,0.075,0.9933,5.87,-5,2021,7,9,9,52,22,7/9/2021,9:52:22 AM,7/09/2021 9:52:22,6.554,102.21,32.8738,46,2464,2721,3294,0,24135,10,0,0.955,1.829,9:52:22 AM,51.2782329,2.6143775,3,RTK       ,,,,,,,,,,,,,,,
0,0,0,0,0,0,0,0,0.0019,0.063,0.4997,0.7088,0.6463,0.5591,0.3557,0.2664,0.1838,0.1648,0.1363,0.1935,0.2747,0.4434,0.9206,1.8886,2.4938,2.5562,2.2116,1.8459,1.6814,1.777,2.2167,3.1491,4.362,4.4138,2.2123,0.4443,22.0892,1.121,11.04,0.075,0.9933,5.95,-5,2021,7,9,9,52,23,7/9/2021,9:52:23 AM,7/09/2021 9:52:23,6.554,122.75,36.6707,46,2462,2713,3293,0,24148,10,0,0.954,1.902,9:52:23 AM,51.278245,2.61438617,2.8,RTK       ,,,,,,,,,,,,,,,
0,0,0,0,0,0,0,0,0.0022,0.0714,0.555,0.7737,0.7006,0.6069,0.3946,0.3077,0.2233,0.2061,0.168,0.2232,0.2957,0.4454,0.8643,1.7217,2.342,2.6682,2.6892,2.6018,2.6259,2.941,3.6703,4.868,6.0412,5.4039,2.4059,0.3952,27.0982,1.1122,11.04,0.075,0.9945,5.9,-5,2021,7,9,9,52,24,7/9/2021,9:52:24 AM,7/09/2021 9:52:24,6.554,133.01,46.2126,46,2463,2712,3286,0,24140,11,0,0.945,2.268,9:52:24 AM,51.27825613,2.61439683,2.8,RTK       ,,,,,,,,,,,,,,,
0,0,0,0,0,0,0,0,0.0021,0.076,0.5943,0.746,0.5975,0.4678,0.2911,0.2379,0.1869,0.1894,0.1722,0.2606,0.3944,0.6418,1.3062,2.5,2.9814,2.8312,2.3813,2.0246,1.8884,2.0181,2.3664,2.8073,2.872,2.1199,0.8316,0.1264,25.1556,1.1204,11.05,0.075,0.9939,5.81,-5,2021,7,9,9,52,25,7/9/2021,9:52:25 AM,7/09/2021 9:52:25,6.554,99.96,33.9127,46,2450,2714,3271,0,24126,11,0,0.952,1.95,9:52:25 AM,51.27826775,2.61440767,3,RTK       ,,,,,,,,,,,,,,,
0,0,0,0,0,0,0,0,0.0016,0.058,0.4883,0.7096,0.6935,0.6648,0.4573,0.3523,0.2365,0.2026,0.1556,0.2091,0.2804,0.4291,0.8518,1.6625,2.0957,2.1089,1.8852,1.7493,1.9293,2.6666,4.43,7.667,11.1228,10.3687,4.8402,0.7806,24.318,1.1135,11.04,0.075,0.9939,5.8,-5,2021,7,9,9,52,26,7/9/2021,9:52:26 AM,7/09/2021 9:52:26,6.554,167.51,59.0971,46,2456,2718,3283,0,24125,10,0,0.947,2.195,9:52:26 AM,51.2782805,2.6144165,3,RTK       ,,,,,,,,,,,,,,,
0,0,0,0,0,0,0,0,0.0042,0.1055,0.6256,0.6938,0.5456,0.4356,0.2823,0.2267,0.171,0.1661,0.1446,0.2069,0.2956,0.479,1.0061,2.0638,2.6692,2.6496,2.2296,1.8639,1.739,1.9291,2.499,3.5159,4.3402,3.5691,1.366,0.211,23.0318,1.1251,11.05,0.075,0.9939,5.84,-5,2021,7,9,9,52,27,7/9/2021,9:52:27 AM,7/09/2021 9:52:27,6.554,116.98,36.034,46,2454,2722,3288,0,24130,10,0,0.956,1.78,9:52:27 AM,51.27829253,2.61442583,2.8,RTK       ,,,,,,,,,,,,,,,
0,0,0,0,0,0,0,0,0.0023,0.0781,0.5995,0.7729,0.6362,0.5034,0.3157,0.2585,0.2051,0.2057,0.1804,0.2526,0.3531,0.5461,1.0612,1.9821,2.3919,2.371,2.1671,2.1263,2.4073,3.1397,4.3395,5.9014,6.7689,5.2323,2.1129,0.322,26.8957,1.1135,11.05,0.075,0.9933,5.8,-5,2021,7,9,9,52,28,7/9/2021,9:52:28 AM,7/09/2021 9:52:28,6.554,136.1,47.2333,46,2448,2719,3274,0,24124,11,0,0.947,2.171,9:52:28 AM,51.27830405,2.61443667,2.9,RTK       ,,,,,,,,,,,,,,,
0,0,0,0,0,0,0,0,0.0029,0.0893,0.6044,0.7218,0.5888,0.4804,0.3115,0.2536,0.1932,0.1883,0.1607,0.2245,0.3132,0.5018,1.0599,2.1872,2.7538,2.6219,2.1193,1.7124,1.5233,1.5952,1.9632,2.7085,3.5724,3.4974,1.7915,0.3654,22.1706,1.1217,11.04,0.075,0.9951,5.73,-5,2021,7,9,9,52,29,7/9/2021,9:52:29 AM,7/09/2021 9:52:29,6.554,111.68,34.1058,46,2444,2723,3262,0,24114,11,0,0.952,1.949,9:52:29 AM,51.27831635,2.614447,3.1,RTK       ,,,,,,,,,,,,,,,
0,0,0,0,0,0,0,0,0.0057,0.1242,0.631,0.6789,0.5214,0.417,0.2784,0.2296,0.1771,0.1705,0.1436,0.1962,0.2677,0.4179,0.8559,1.7363,2.2604,2.3012,2.0137,1.7428,1.6461,1.7837,2.1522,2.7174,3.1145,2.6202,1.2249,0.2553,20.7515,1.1245,11.04,0.075,0.9939,5.77,-5,2021,7,9,9,52,30,7/9/2021,9:52:30 AM,7/09/2021 9:52:30,6.554,109.43,30.6837,46,2453,2715,3290,0,24119,11,0,0.956,1.804,9:52:30 AM,51.27832913,2.61445617,3,RTK       ,,,,,,,,,,,,,,,
