Volume conc (microl/l) 1,Volume conc (microl/l) 2,Volume conc (microl/l) 3,Volume conc (microl/l) 4,Volume conc (microl/l) 5,Volume conc (microl/l) 6,Volume conc (microl/l) 7,Volume conc (microl/l) 8,Volume conc (microl/l) 9,Volume conc (microl/l) 10,Volume conc (microl/l) 11,Volume conc (microl/l) 12,Volume conc (microl/l) 13,Volume conc (microl/l) 14,Volume conc (microl/l) 15,Volume conc (microl/l) 16,Volume conc (microl/l) 17,Volume conc (microl/l) 18,Volume conc (microl/l) 19,Volume conc (microl/l) 20,Volume conc (microl/l) 21,Volume conc (microl/l) 22,Volume conc (microl/l) 23,Volume conc (microl/l) 24,Volume conc (microl/l) 25,Volume conc (microl/l) 26,Volume conc (microl/l) 27,Volume conc (microl/l) 28,Volume conc (microl/l) 29,Volume conc (microl/l) 30,Volume conc (microl/l) 31,Volume conc (microl/l) 32,Volume conc (microl/l) 33,Volume conc (microl/l) 34,Volume conc (microl/l) 35,Volume conc (microl/l) 36,TVC_recal,Laser transmission Sensor [mW],Supply voltage in calibrated units [V],External Auxiliary input 1 in calibrated units [mW],Laser Reference sensor in calibrated units [mW],Depth in calibrated units [m],Temperature in calibrated units [C],year,Month,day,hour,minute,second,DATE,TIME,DATE  & Time (format gps),External Auxiliary input 2 in calibrated units [mW],Sauter Mean Diameter [?],Total Volume Concentration [ppm],Relative Humidity [%],Accelerometer X [counts],Accelerometer Y [counts],Accelerometer Z [counts],Raw pressure (most sign bit),Raw pressure (least sign 16 bits),Ambient light (counts),Not used,Computed optical transmission over path,Beam-attenuation (c) [m-1].,Current Time,Latitude_ship,Longitude_ship,Speed Over Ground,GPSfix,Row Labels,Average of Salinity,Average of Temperature_C,Average of Turbidity_NTU,Average of Depth_m,Average of Chlorohyll_ug_L,Time,VPR lat,VPR long,VPR depth,majoraxis,minoraxis,angle,devz,linename,datetime,waterniveau LAT,waterniveau LAT smooth,Sonarscope LAT correction,Lisst_depth_m_LAT,inverted Depth in calibrated units [m],D10,D50,D75-D25,D75/D25,D90,D90-D10,D90/D10,Krumbein(Qd),PSD_slope,"TVC_(0.0, 3.0]","TVC_(20.0, 200.0]","TVC_(200.0, 420.0]","TVC_(3.0, 20.0]",Trask(So),kurtosis_geom_um,mean_geom_um,mode_1,mode_2,mode_3,mode_4,mode_5,mode_6,skewness_geom_um,sorting_geom_um
0.0,0.0,0.0039,0.0276,0.0878,0.0717,0.0229,0.0105,0.0152,0.0236,0.0319,0.0447,0.056,0.0614,0.0508,0.0339,0.0205,0.0163,0.0152,0.0224,0.0327,0.0869,0.3369,1.3728,3.3847,4.6341,4.1013,3.3014,3.1393,3.5704,4.3172,4.8755,4.4092,2.6291,0.7909,0.1511,41.7498,1.0083,11.15,0.07,0.9998,0.14,-5.0,2021.0,7.0,9.0,9.0,48.0,10.0,7/9/2021,9:48:10 AM,7/09/2021 9:48:10,6.554,142.06,41.7498,47.0,2366.0,2715.0,3209.0,0.0,23236.0,5348.0,0.0,0.852,6.4,9:48:10 AM,51.27717687,2.6139415,0.2,RTK       ,,,,,,,,,,,,,,,,2021-07-09 09:48:10,3.2309999999999963,3.265942927216539,,3.125942927216539,-0.14,66.59316795644253,139.05016646499396,126.52111593284432,2.486420113999283,266.666292799426,200.07312484298347,4.004409175635674,1.3140700796472107,2.8723890511606975,0.191,28.3316,12.8558,0.3714,0.6341802966602496,10.96982190619066,142.36112563133904,230.0,85.2,2.63,11.7,,,-1.734639765123624,1.8953424698272434
0.0,0.0,0.0,0.0,0.0221,0.0718,0.0172,0.0062,0.0186,0.0527,0.0611,0.0641,0.0633,0.0645,0.0484,0.0286,0.0139,0.0103,0.0079,0.0115,0.0166,0.0488,0.2407,1.2556,3.2503,4.5261,3.9894,3.2164,3.1336,3.676,4.4313,4.5749,3.2823,1.258,0.1818,0.0118,37.65580000000001,1.009,11.15,0.075,0.9998,0.13,-5.0,2021.0,7.0,9.0,9.0,48.0,11.0,7/9/2021,9:48:11 AM,7/09/2021 9:48:11,6.554,134.69,37.6556,47.0,2369.0,2712.0,3199.0,0.0,23234.0,5373.0,0.0,0.853,6.373,9:48:11 AM,51.27717705,2.613943,0.3,RTK       ,,,,,,,,,,,,,,,,2021-07-09 09:48:11,3.210999999999993,3.2662868811579635,,3.1362868811579636,-0.13,66.52875398830253,130.1154032456222,110.53087963616687,2.320596891371629,241.9285076033066,175.39975361500407,3.636450303065106,1.2144959352944067,2.9867565101631945,0.09390000000000001,27.814500000000002,9.3088,0.4386,0.6564477240436132,10.72797424305361,134.87008395224473,230.0,85.2,3.11,11.7,8.39,,-1.727635178082735,1.811596566090647
0.0,0.0,0.0,0.0016,0.037,0.0745,0.0197,0.0079,0.0191,0.0449,0.0547,0.0628,0.0644,0.064,0.0479,0.029,0.0151,0.0114,0.0092,0.0136,0.0196,0.0565,0.2625,1.2829,3.3032,4.5824,4.0352,3.257,3.1788,3.7338,4.5208,4.7761,3.6412,1.5875,0.2898,0.0271,39.13119999999999,1.0056,11.14,0.075,1.0004,0.12,-5.0,2021.0,7.0,9.0,9.0,48.0,12.0,7/9/2021,9:48:12 AM,7/09/2021 9:48:12,6.554,136.89,39.1313,47.0,2366.0,2710.0,3208.0,0.0,23233.0,5279.0,0.0,0.849,6.532,9:48:12 AM,51.27717678,2.61394517,0.4,RTK       ,,,,,,,,,,,,,,,,2021-07-09 09:48:12,3.2909999999999915,3.2666158878586486,,3.1466158878586485,-0.12,66.68347428963807,133.0950580459312,114.38802449196578,2.3572677261218353,248.37027611836203,181.68680182872396,3.724615112877468,1.2371156216400503,2.935895961145142,0.11309999999999999,28.2669,10.3217,0.4295,0.6513216957157064,10.773026260791426,137.0931334021594,230.0,85.2,3.11,9.9,,,-1.7276942736456067,1.828530387828542
0.0,0.0,0.0,0.0094,0.0685,0.0769,0.0206,0.0083,0.015,0.0284,0.0385,0.0517,0.061,0.064,0.0486,0.0293,0.0159,0.0122,0.0109,0.0166,0.0249,0.0709,0.306,1.3668,3.4128,4.6326,4.0477,3.2457,3.1085,3.5843,4.3903,4.9037,4.1806,2.1906,0.5346,0.0758,40.6516,1.0083,11.15,0.075,0.9998,0.14,-5.0,2021.0,7.0,9.0,9.0,48.0,13.0,7/9/2021,9:48:13 AM,7/09/2021 9:48:13,6.554,140.03,40.6517,47.0,2364.0,2715.0,3221.0,0.0,23235.0,5450.0,0.0,0.852,6.4,9:48:13 AM,51.27717578,2.61394733,0.4,RTK       ,,,,,,,,,,,,,,,,2021-07-09 09:48:13,3.3109999999999946,3.2669399564047077,,3.1269399564047076,-0.14,66.51909960920185,136.6310447622798,122.12909622751512,2.4451111576715707,259.21164708874755,192.6925474795457,3.896800296630741,1.2899000533068539,2.906958914570198,0.1548,28.2302,11.885299999999999,0.38130000000000003,0.6395149423391403,10.712573402947264,140.27893368652101,230.0,85.2,3.11,11.7,,,-1.6925447905848192,1.8616470194193024
0.0,0.0,0.0,0.0015,0.0354,0.0763,0.0205,0.0081,0.0195,0.0454,0.0536,0.0593,0.0606,0.0606,0.0458,0.0281,0.0147,0.0112,0.0092,0.0136,0.0198,0.0578,0.2723,1.3339,3.3742,4.5789,3.9742,3.1863,3.0891,3.6159,4.4008,4.7265,3.6962,1.6544,0.308,0.0289,38.8806,1.009,11.14,0.075,0.9998,0.14,-5.0,2021.0,7.0,9.0,9.0,48.0,14.0,7/9/2021,9:48:14 AM,7/09/2021 9:48:14,6.554,136.85,38.8805,47.0,2367.0,2716.0,3204.0,0.0,23236.0,5572.0,0.0,0.853,6.373,9:48:14 AM,51.27717517,2.61394933,0.2,RTK       ,,,,,,,,,,,,,,,,2021-07-09 09:48:14,3.2209999999999983,3.267260946389516,,3.127260946389516,-0.14,66.32244959966525,132.75786646142814,116.0496876420602,2.3859391702923305,250.01456893528263,183.69211933561738,3.7696823691588217,1.2545572618779475,2.930398976240467,0.11320000000000001,27.9372,10.414,0.4162,0.647396454218776,10.555157850059778,137.05747938895553,230.0,85.2,3.11,,,,-1.6872099930795124,1.8340773231455014
0.0,0.0,0.0,0.0033,0.0496,0.077,0.0189,0.0072,0.0155,0.0343,0.0438,0.0556,0.0631,0.066,0.05,0.0296,0.0152,0.0113,0.0095,0.0141,0.0208,0.0601,0.2759,1.329,3.3988,4.6207,3.9795,3.1605,3.0552,3.5993,4.4577,4.9072,3.9617,1.8464,0.3656,0.0381,39.6405,1.0117,11.15,0.075,1.0004,0.14,-5.0,2021.0,7.0,9.0,9.0,48.0,15.0,7/9/2021,9:48:15 AM,7/09/2021 9:48:15,6.554,138.53,39.6405,47.0,2371.0,2713.0,3199.0,0.0,23236.0,5602.0,0.0,0.855,6.288,9:48:15 AM,51.27717515,2.61395083,0.2,RTK       ,,,,,,,,,,,,,,,,2021-07-09 09:48:15,3.170999999999994,3.2675660358204697,,3.1275660358204695,-0.14,66.52087535138213,135.2834297475935,118.9829512665803,2.4146019092283293,253.48946793930259,186.96859258792045,3.810675469922777,1.27178535431019,2.9434878001315337,0.1299,27.9924,11.119,0.3992,0.643542495335617,10.588864349571626,138.74958457966906,230.0,85.2,3.11,11.7,,,-1.685552459132714,1.8411153341586606
0.0,0.0,0.0,0.0042,0.0529,0.0752,0.0184,0.0072,0.0155,0.0342,0.044,0.0562,0.0633,0.0662,0.0505,0.0303,0.0158,0.0117,0.0096,0.014,0.02,0.057,0.263,1.2978,3.4238,4.7458,4.0917,3.2013,3.0341,3.5263,4.3402,4.784,3.9325,1.9248,0.4149,0.0479,39.674299999999995,1.0097,11.14,0.075,1.0009,0.14,-5.0,2021.0,7.0,9.0,9.0,48.0,16.0,7/9/2021,9:48:16 AM,7/09/2021 9:48:16,6.554,138.17,39.6744,47.0,2369.0,2713.0,3209.0,0.0,23236.0,5611.0,0.0,0.852,6.392,9:48:16 AM,51.2771747,2.61395217,0.3,RTK       ,,,,,,,,,,,,,,,,2021-07-09 09:48:16,3.2409999999999943,3.2678481788338396,,3.1278481788338395,-0.14,66.62877423227445,133.6502649496006,119.29312647290418,2.4227062692491828,254.83521605590278,188.20644182362832,3.824702149967853,1.276619501947637,2.93379180229308,0.1323,28.0363,11.1041,0.40159999999999996,0.6424652147075415,10.533012720322928,138.40620652080892,230.0,85.2,3.11,11.7,,,-1.6625063296980038,1.8454747865538765
0.0,0.0,0.0,0.003,0.0463,0.0758,0.0201,0.0082,0.0179,0.0388,0.0492,0.0584,0.0628,0.064,0.0483,0.0289,0.015,0.0112,0.0093,0.0139,0.0205,0.0599,0.2786,1.3389,3.3945,4.5988,3.9753,3.1703,3.077,3.6246,4.4646,4.8935,3.976,1.891,0.3844,0.0409,39.7599,1.009,11.14,0.075,0.9998,0.12,-5.0,2021.0,7.0,9.0,9.0,48.0,17.0,7/9/2021,9:48:17 AM,7/09/2021 9:48:17,6.554,138.7,39.7601,47.0,2365.0,2713.0,3212.0,0.0,23233.0,5620.0,0.0,0.853,6.373,9:48:17 AM,51.27717425,2.61395467,0.4,RTK       ,,,,,,,,,,,,,,,,2021-07-09 09:48:17,3.3199999999999936,3.2681181207450933,,3.1481181207450932,-0.12,66.50438599829309,135.59745105844516,119.15291913260366,2.4148312847825775,254.15083596141127,187.6464499631182,3.8215650313339387,1.2719223968829185,2.9493336508069667,0.12510000000000002,28.037399999999998,11.1858,0.41159999999999997,0.6435119307941225,10.528845703866665,138.92683752616605,230.0,85.2,3.11,11.7,,,-1.6855928190261658,1.8442250349909604
0.0,0.0,0.0,0.0038,0.0497,0.0738,0.0195,0.0082,0.0175,0.0379,0.0482,0.0588,0.0632,0.063,0.0466,0.0276,0.0146,0.0112,0.0097,0.0146,0.0216,0.062,0.282,1.3402,3.3955,4.6161,4.0304,3.2457,3.142,3.6555,4.4296,4.7816,3.8619,1.8631,0.3933,0.0442,39.7326,1.0083,11.14,0.075,0.9998,0.12,-5.0,2021.0,7.0,9.0,9.0,48.0,18.0,7/9/2021,9:48:18 AM,7/09/2021 9:48:18,6.554,138.04,39.7327,47.0,2364.0,2715.0,3211.0,0.0,23233.0,5626.0,0.0,0.852,6.4,9:48:18 AM,51.27717387,2.61395717,0.2,RTK       ,,,,,,,,,,,,,,,,2021-07-09 09:48:18,3.2899999999999996,3.2683881429571358,,3.1483881429571356,-0.12,66.47870883244507,134.06753921878092,117.79538138646552,2.4001478911989915,253.4682461622775,186.98953732983244,3.8127733016164087,1.2631233038862204,2.9447089329834952,0.1273,28.2561,10.9441,0.4051,0.64547733708733,10.622068706014305,138.26212903762053,230.0,85.2,3.11,9.9,,,-1.6850313411043052,1.8417478497412687
0.0,0.0,0.0,0.0036,0.0502,0.076,0.0194,0.0077,0.0168,0.0368,0.0463,0.0569,0.0621,0.0632,0.048,0.0288,0.015,0.0112,0.0094,0.0139,0.0204,0.0586,0.2705,1.3121,3.3823,4.6566,4.068,3.2498,3.1205,3.6157,4.3713,4.6858,3.7618,1.8026,0.3777,0.042,39.361,1.0104,11.13,0.075,0.9998,0.14,-5.0,2021.0,7.0,9.0,9.0,48.0,19.0,7/9/2021,9:48:19 AM,7/09/2021 9:48:19,6.554,137.37,39.3606,47.0,2368.0,2716.0,3210.0,0.0,23235.0,5638.0,0.0,0.854,6.319,9:48:19 AM,51.27717345,2.6139585,0.4,RTK       ,,,,,,,,,,,,,,,,2021-07-09 09:48:19,3.3099999999999956,3.2686605570546776,,3.1286605570546775,-0.14,66.53151335402896,132.73202626312604,116.86302711023374,2.392542438870822,252.49434306148584,185.96282970745688,3.7951089691573276,1.258544515434585,2.9478775678912537,0.1298,28.1603,10.6699,0.401,0.646502449935071,10.718766035599506,137.59096880252275,230.0,85.2,3.11,11.7,,,-1.6906849441202607,1.8398635762357944
0.0,0.0,0.0,0.0032,0.046,0.0764,0.0212,0.0088,0.0185,0.0386,0.0463,0.0537,0.0573,0.0585,0.0453,0.0284,0.0157,0.0123,0.0106,0.0155,0.0226,0.0637,0.2863,1.3453,3.3704,4.5846,4.0315,3.2606,3.1524,3.6615,4.4195,4.7016,3.6793,1.6916,0.3393,0.0367,39.2032,1.0117,11.13,0.075,1.0004,0.14,-5.0,2021.0,7.0,9.0,9.0,48.0,20.0,7/9/2021,9:48:20 AM,7/09/2021 9:48:20,6.554,136.91,39.2034,47.0,2369.0,2714.0,3209.0,0.0,23235.0,5649.0,0.0,0.855,6.288,9:48:20 AM,51.27717302,2.61396167,0.5,RTK       ,,,,,,,,,,,,,,,,2021-07-09 09:48:20,3.3099999999999956,3.2689358540752265,,3.1289358540752263,-0.14,66.34557300124342,132.4720056823704,115.59338340562512,2.3778824727843113,250.42681282664117,184.08123982539774,3.774582108469359,1.2496774114160587,2.961202014382276,0.1256,28.236800000000002,10.4485,0.3923,0.648492275152525,10.782570195305201,137.1174444462748,230.0,85.2,3.11,11.7,,,-1.698996849322931,1.8336825154297243
0.0,0.0,0.0,0.0036,0.0521,0.0742,0.0169,0.0065,0.0147,0.0342,0.0459,0.0596,0.0661,0.0667,0.0485,0.0279,0.0143,0.0107,0.0089,0.0134,0.0199,0.059,0.2814,1.3788,3.4856,4.6561,3.9797,3.1656,3.0765,3.6215,4.446,4.8431,3.8797,1.7966,0.3539,0.037,39.6446,1.0042,11.14,0.075,0.9992,0.12,-5.0,2021.0,7.0,9.0,9.0,48.0,21.0,7/9/2021,9:48:21 AM,7/09/2021 9:48:21,6.554,137.61,39.6449,47.0,2364.0,2713.0,3200.0,0.0,23233.0,5660.0,0.0,0.849,6.539,9:48:21 AM,51.2771727,2.61396383,0.1,RTK       ,,,,,,,,,,,,,,,,2021-07-09 09:48:21,3.203999999999996,3.269208656971779,,3.149208656971779,-0.12,66.21599931909974,133.8916561670753,118.1574786040445,2.413401879268031,252.38898804471245,186.1729887256127,3.8116012842822395,1.2710681728894055,2.940556040682438,0.12990000000000002,28.2031,10.9103,0.4013,0.6437024716548332,10.541130438069485,137.82562801920375,230.0,85.2,3.11,11.7,,,-1.6731815410155113,1.840507545765877
0.0,0.0,0.0,0.0044,0.0544,0.075,0.0181,0.0069,0.0149,0.033,0.0424,0.0556,0.0624,0.0633,0.0464,0.0269,0.0139,0.0104,0.0088,0.013,0.0191,0.0566,0.2719,1.3552,3.499,4.7383,4.0443,3.1639,3.0185,3.5422,4.3945,4.8789,4.0273,1.9463,0.4057,0.0451,39.9566,1.0063,11.12,0.075,0.9992,0.12,-5.0,2021.0,7.0,9.0,9.0,48.0,22.0,7/9/2021,9:48:22 AM,7/09/2021 9:48:22,6.554,138.54,39.9567,47.0,2367.0,2714.0,3206.0,0.0,23233.0,5663.0,0.0,0.851,6.458,9:48:22 AM,51.27717277,2.61396417,0.1,RTK       ,,,,,,,,,,,,,,,,2021-07-09 09:48:22,3.2739999999999965,3.269470291090938,,3.149470291090938,-0.12,66.4526319221124,134.54404853966744,120.14406199833115,2.4350315838378522,255.04520741498578,188.59257549287338,3.838000091763384,1.2839404850594582,2.925834969914143,0.1338,28.1357,11.3033,0.3838,0.6408371800479455,10.499380756550053,138.76735763569977,230.0,85.2,3.11,11.7,,,-1.6507950189195866,1.8432877911827916
0.0,0.0,0.0,0.0037,0.0502,0.0725,0.0178,0.0071,0.0156,0.035,0.0447,0.0568,0.0626,0.0638,0.0469,0.0267,0.0134,0.0097,0.008,0.0119,0.0175,0.0526,0.2619,1.343,3.4903,4.7181,4.0499,3.2065,3.0782,3.5964,4.3967,4.7479,3.7717,1.751,0.3523,0.0379,39.418299999999995,1.0104,11.14,0.075,0.9998,0.13,-5.0,2021.0,7.0,9.0,9.0,48.0,23.0,7/9/2021,9:48:23 AM,7/09/2021 9:48:23,6.554,137.12,39.4182,47.0,2367.0,2714.0,3216.0,0.0,23234.0,5668.0,0.0,0.854,6.319,9:48:23 AM,51.27717193,2.61396583,0.5,RTK       ,,,,,,,,,,,,,,,,2021-07-09 09:48:23,3.434,3.269732773158552,,3.1397327731585523,-0.13,66.39507841034855,132.4133754194174,117.04602853295144,2.40179123506901,251.55158914362107,185.1565107332725,3.788708367643308,1.2641107566972476,2.941418970958549,0.1264,28.2407,10.6608,0.3904,0.6452564763572708,10.617166770307186,137.3307049510112,230.0,85.2,3.11,11.7,,,-1.6627103285018177,1.8336282227259253
0.0,0.0,0.0,0.0042,0.051,0.0738,0.0197,0.0082,0.0169,0.0352,0.0443,0.0551,0.0609,0.0628,0.0472,0.0277,0.0143,0.0106,0.0089,0.0132,0.0193,0.0571,0.2738,1.3532,3.4782,4.7011,4.0359,3.19,3.0565,3.5711,4.3958,4.8448,4.0018,1.9741,0.4307,0.0505,39.9879,1.009,11.14,0.075,0.9998,0.14,-5.0,2021.0,7.0,9.0,9.0,48.0,24.0,7/9/2021,9:48:24 AM,7/09/2021 9:48:24,6.554,138.7,39.9876,47.0,2365.0,2715.0,3214.0,0.0,23235.0,5680.0,0.0,0.853,6.373,9:48:24 AM,51.27717085,2.61396883,0.3,RTK       ,,,,,,,,,,,,,,,,2021-07-09 09:48:24,3.3339999999999916,3.2700137122853525,,3.1300137122853524,-0.14,66.4800860085638,134.7047104185381,119.97527416629048,2.430137068220673,255.53666331373242,189.05657730516862,3.8438076521263045,1.2810376891665682,2.9298684782555067,0.129,28.1647,11.3019,0.3923,0.6414822074154517,10.45178760432117,138.93074677544217,230.0,85.2,3.11,11.7,,,-1.6467902817158795,1.8441344112194307
0.0,0.0,0.0,0.0037,0.0506,0.0743,0.0188,0.0077,0.0166,0.0363,0.0465,0.0567,0.0616,0.0624,0.0465,0.0272,0.0141,0.0105,0.0087,0.013,0.0191,0.0569,0.2746,1.3577,3.4529,4.6465,4.0077,3.1879,3.0617,3.5964,4.4622,4.9239,4.0194,1.9167,0.3934,0.0425,39.97469999999999,1.0063,11.14,0.075,0.9992,0.12,-5.0,2021.0,7.0,9.0,9.0,48.0,25.0,7/9/2021,9:48:25 AM,7/09/2021 9:48:25,6.554,138.8,39.9747,47.0,2372.0,2714.0,3206.0,0.0,23232.0,5694.0,0.0,0.851,6.458,9:48:25 AM,51.2771711,2.6139705,0.2,RTK       ,,,,,,,,,,,,,,,,2021-07-09 09:48:25,3.1579999999999937,3.270299457088432,,3.150299457088432,-0.12,66.49678533231636,135.37516712141658,119.61557100680491,2.4225308902044986,254.50802848967447,188.0112431573581,3.827373416891894,1.2765150618676881,2.9369820969403984,0.1286,28.1558,11.2959,0.3944,0.6424884699107781,10.531312523232499,139.0255727404633,230.0,85.2,3.11,11.7,,,-1.6689036746064183,1.8416715264642596
0.0,0.0,0.0,0.0038,0.0501,0.0758,0.0197,0.0076,0.0159,0.034,0.0425,0.0544,0.0611,0.0633,0.0469,0.027,0.0136,0.01,0.0084,0.013,0.0197,0.0591,0.2819,1.3683,3.4654,4.6796,4.032,3.1973,3.0655,3.5796,4.4169,4.8905,4.0417,1.978,0.4225,0.0481,40.093199999999996,1.0076,11.12,0.075,0.9992,0.12,-5.0,2021.0,7.0,9.0,9.0,48.0,26.0,7/9/2021,9:48:26 AM,7/09/2021 9:48:26,6.554,138.92,40.0931,47.0,2366.0,2714.0,3203.0,0.0,23233.0,5703.0,0.0,0.852,6.403,9:48:26 AM,51.27717157,2.613972,0.3,RTK       ,,,,,,,,,,,,,,,,2021-07-09 09:48:26,3.227999999999994,3.270566527900447,,3.150566527900447,-0.12,66.47450034722915,135.11944529061174,120.13400542117672,2.4300084003209474,255.5167186675532,189.04221832032403,3.8438306017023542,1.2809613011069518,2.9246737535749734,0.1297,28.1967,11.3808,0.386,0.6414991902941461,10.442898916867398,139.1549708092909,230.0,85.2,3.11,11.7,,,-1.644145058238151,1.8420261941597653
0.0,0.0,0.0,0.0083,0.0668,0.0779,0.0204,0.0082,0.0153,0.0294,0.0382,0.0507,0.06,0.0641,0.0504,0.0312,0.0171,0.0131,0.0114,0.0167,0.0243,0.0678,0.2934,1.3332,3.3777,4.6475,4.0793,3.2652,3.1307,3.6208,4.4008,4.8297,4.043,2.0799,0.4918,0.0662,40.33050000000001,1.0104,11.13,0.075,0.9992,0.12,-5.0,2021.0,7.0,9.0,9.0,48.0,27.0,7/9/2021,9:48:27 AM,7/09/2021 9:48:27,6.554,139.27,40.3305,47.0,2359.0,2713.0,3212.0,0.0,23233.0,5595.0,0.0,0.854,6.295,9:48:27 AM,51.27717093,2.61397467,0.5,RTK       ,,,,,,,,,,,,,,,,2021-07-09 09:48:27,3.457999999999998,3.270827105006285,,3.150827105006285,-0.12,66.62363391670705,135.47402562439657,120.28048528573485,2.4238886015761536,257.3219523649669,190.69831844825984,3.862322380773632,1.2773233961513424,2.9188566063912056,0.153,28.2819,11.5106,0.385,0.642308503700824,10.835681607720337,139.50937102528025,230.0,85.2,3.11,11.7,,,-1.7081983703821009,1.8561125871457482
0.0,0.0,0.0,0.0017,0.0393,0.0782,0.0198,0.0076,0.0179,0.0418,0.0512,0.058,0.0609,0.0619,0.0473,0.0288,0.0149,0.0113,0.0093,0.0139,0.0204,0.0584,0.2658,1.282,3.297,4.5876,4.0357,3.2421,3.1469,3.6957,4.5065,4.7962,3.6661,1.5856,0.2832,0.0256,39.05859999999999,1.0076,11.13,0.075,0.9998,0.12,-5.0,2021.0,7.0,9.0,9.0,48.0,28.0,7/9/2021,9:48:28 AM,7/09/2021 9:48:28,6.554,137.01,39.0584,47.0,2367.0,2715.0,3214.0,0.0,23233.0,5646.0,0.0,0.852,6.427,9:48:28 AM,51.27716965,2.6139775,0.3,RTK       ,,,,,,,,,,,,,,,,2021-07-09 09:48:28,3.4079999999999937,3.271110550447919,,3.151110550447919,-0.12,66.69637554857631,133.1567430753528,114.76334431135778,2.362158924250322,248.49799375336744,181.8016182047911,3.725809561756191,1.2401060314221057,2.930509736893277,0.1192,28.172600000000003,10.3567,0.4101,0.6506470175063307,10.860135991534213,137.2089228391894,230.0,85.2,3.11,11.7,,,-1.7302408209683513,1.827385801024172
0.0,0.0,0.0,0.0026,0.0453,0.079,0.0203,0.0077,0.0168,0.0372,0.0455,0.0555,0.0613,0.0649,0.0508,0.0315,0.0167,0.0128,0.0108,0.0162,0.024,0.067,0.2875,1.302,3.2603,4.5289,4.021,3.2498,3.1545,3.6907,4.5025,4.8358,3.7917,1.7312,0.3385,0.0347,39.39500000000001,1.0104,11.13,0.075,1.0004,0.14,-5.0,2021.0,7.0,9.0,9.0,48.0,29.0,7/9/2021,9:48:29 AM,7/09/2021 9:48:29,6.554,137.96,39.395,47.0,2376.0,2716.0,3202.0,0.0,23236.0,5707.0,0.0,0.853,6.342,9:48:29 AM,51.27716963,2.61397883,0.1,RTK       ,,,,,,,,,,,,,,,,2021-07-09 09:48:29,3.1870000000000003,3.2714107410896793,,3.131410741089679,-0.14,66.65491655473264,134.5382570394392,116.3762163641345,2.3757325772161897,251.26837086255964,184.613454307827,3.769689977126212,1.2483724492542478,2.9592985354233567,0.1269,28.128,10.7319,0.4082,0.6487856321173555,10.785609629882565,138.17397640750727,230.0,85.2,3.11,11.7,,,-1.7223923863152488,1.8358647119562093
0.0,0.0,0.0,0.0032,0.046,0.0768,0.0219,0.0094,0.0201,0.0425,0.052,0.0588,0.0599,0.0587,0.0448,0.0286,0.0164,0.0133,0.0119,0.0178,0.0263,0.0715,0.2983,1.3265,3.3169,4.5898,4.0557,3.2658,3.1505,3.6608,4.4457,4.7822,3.776,1.7432,0.3508,0.0381,39.4802,1.007,11.12,0.075,0.9992,0.12,-5.0,2021.0,7.0,9.0,9.0,48.0,30.0,7/9/2021,9:48:30 AM,7/09/2021 9:48:30,6.554,137.32,39.48,47.0,2363.0,2711.0,3198.0,0.0,23233.0,5725.0,0.0,0.851,6.431,9:48:30 AM,51.27717037,2.61397983,0.5,RTK       ,,,,,,,,,,,,,,,,2021-07-09 09:48:30,3.2569999999999935,3.2717014911866635,,3.1517014911866634,-0.12,66.42275119705613,133.35065683160406,116.44292052371505,2.3836332150905375,251.4004937911195,184.97774259406336,3.784855177788264,1.2531622561522595,2.9695085956377416,0.126,28.250799999999998,10.690299999999999,0.4131,0.6477095280448849,10.763690702826434,137.53080060802802,230.0,85.2,3.11,9.9,,,-1.720371383306826,1.8419819750001816
0.0,0.0,0.0,0.003,0.0456,0.0774,0.0211,0.0086,0.0184,0.0395,0.0493,0.0581,0.0626,0.0636,0.0487,0.0301,0.0162,0.0124,0.0105,0.0156,0.0228,0.0639,0.2791,1.2945,3.3112,4.6096,4.0627,3.2623,3.1522,3.6618,4.4289,4.7578,3.7878,1.7843,0.3662,0.0401,39.4659,1.0083,11.13,0.075,0.9992,0.13,-5.0,2021.0,7.0,9.0,9.0,48.0,31.0,7/9/2021,9:48:31 AM,7/09/2021 9:48:31,6.554,137.66,39.4659,47.0,2358.0,2712.0,3217.0,0.0,23234.0,5738.0,0.0,0.853,6.376,9:48:31 AM,51.27716945,2.61398283,0.5,RTK       ,,,,,,,,,,,,,,,,2021-07-09 09:48:31,3.386999999999996,3.271985926495389,,3.1419859264953893,-0.13,66.63893954726383,133.6105103802451,116.67306037987527,2.384004790140697,252.1478900433756,185.50895049611177,3.783792055462394,1.2533871345858492,2.9602646513318507,0.126,28.1875,10.7362,0.4162,0.6476590495223559,10.73529970386025,137.8823754273323,230.0,85.2,3.11,11.7,,,-1.711843742986442,1.8406414822066137
0.0,0.0,0.0,0.003,0.0479,0.0775,0.0197,0.0079,0.0176,0.039,0.0494,0.0589,0.0636,0.0644,0.0485,0.0292,0.0154,0.0118,0.0101,0.0151,0.0224,0.0633,0.279,1.2984,3.3019,4.5859,4.0564,3.273,3.1665,3.6768,4.45,4.7784,3.7774,1.7473,0.3501,0.0375,39.4433,1.0076,11.13,0.075,0.9998,0.13,-5.0,2021.0,7.0,9.0,9.0,48.0,32.0,7/9/2021,9:48:32 AM,7/09/2021 9:48:32,6.554,137.59,39.4435,47.0,2368.0,2719.0,3217.0,0.0,23234.0,5751.0,0.0,0.852,6.427,9:48:32 AM,51.27716857,2.613986,0.2,RTK       ,,,,,,,,,,,,,,,,2021-07-09 09:48:32,3.2869999999999946,3.2722781477604124,,3.1422781477604125,-0.13,66.6437114614787,133.6517323601055,116.29515856880226,2.378290845199601,251.4822173287884,184.83850586730972,3.773532593156217,1.249925155482741,2.959898154711955,0.12840000000000001,28.2106,10.690700000000001,0.41359999999999997,0.6484365969905299,10.821634943936536,137.8118059068717,230.0,85.2,3.11,11.7,,,-1.7258259922954935,1.839075398024467
0.0,0.0,0.0,0.003,0.0464,0.0769,0.0206,0.0085,0.0185,0.0402,0.0503,0.0594,0.063,0.0626,0.0466,0.0278,0.0146,0.0111,0.0094,0.0143,0.0214,0.0622,0.2811,1.3178,3.3348,4.5798,4.0111,3.2298,3.1443,3.6977,4.52,4.8721,3.8552,1.7904,0.3618,0.0391,39.6918,1.0063,11.12,0.075,0.9998,0.13,-5.0,2021.0,7.0,9.0,9.0,48.0,33.0,7/9/2021,9:48:33 AM,7/09/2021 9:48:33,6.554,138.21,39.6917,47.0,2376.0,2716.0,3196.0,0.0,23234.0,5776.0,0.0,0.85,6.481,9:48:33 AM,51.27716892,2.61398667,0.2,RTK       ,,,,,,,,,,,,,,,,2021-07-09 09:48:33,3.3269999999999933,3.2725760824336585,,3.1425760824336586,-0.13,66.6248493415637,134.95824594293484,117.24904405205262,2.3885230249948926,252.25279168882136,185.62794234725766,3.786166785842985,1.2561187842346917,2.957443806138361,0.1263,28.2348,10.9186,0.4121,0.6470461894329126,10.761381147584197,138.42839789606995,230.0,85.2,3.11,9.9,,,-1.7206568592826472,1.8398953073796303
0.0,0.0,0.0,0.0027,0.0455,0.0772,0.0201,0.0081,0.0181,0.0401,0.0496,0.0588,0.0633,0.0652,0.0505,0.0312,0.0168,0.0129,0.0109,0.0163,0.024,0.0669,0.2913,1.3325,3.3357,4.5986,4.0546,3.261,3.1453,3.6653,4.4845,4.8712,3.8791,1.7831,0.3471,0.0353,39.76279999999999,1.0035,11.13,0.075,0.9992,0.12,-5.0,2021.0,7.0,9.0,9.0,48.0,34.0,7/9/2021,9:48:34 AM,7/09/2021 9:48:34,6.554,137.82,39.7629,47.0,2372.0,2709.0,3205.0,0.0,23233.0,5798.0,0.0,0.849,6.566,9:48:34 AM,51.2771687,2.6139885,0.5,RTK       ,,,,,,,,,,,,,,,,2021-07-09 09:48:34,3.446999999999998,3.272885632908906,,3.152885632908906,-0.12,66.49403480152817,134.22126976395617,117.25336490183875,2.3909375683062946,252.00906784068627,185.51503303915808,3.7899500096946226,1.2575764591708976,2.9632607643680458,0.1254,28.299799999999998,10.9158,0.4218,0.6467193896650446,10.641284055958371,138.04212883404168,230.0,85.2,3.11,11.7,,,-1.7070270407170707,1.8409376184495738
0.0,0.0,0.0,0.0041,0.0519,0.0767,0.0202,0.0083,0.0175,0.0373,0.047,0.0579,0.064,0.0657,0.0505,0.0306,0.0161,0.012,0.01,0.015,0.0222,0.0636,0.2842,1.3237,3.3613,4.6234,4.0421,3.2307,3.1124,3.6256,4.4343,4.8436,3.9439,1.9069,0.4034,0.0458,39.8519,1.0049,11.12,0.075,0.9992,0.12,-5.0,2021.0,7.0,9.0,9.0,48.0,35.0,7/9/2021,9:48:35 AM,7/09/2021 9:48:35,6.554,138.43,39.852,47.0,2361.0,2715.0,3216.0,0.0,23232.0,5798.0,0.0,0.85,6.512,9:48:35 AM,51.27716787,2.61399167,0.5,RTK       ,,,,,,,,,,,,,,,,2021-07-09 09:48:35,3.4269999999999947,3.2732223300614027,,3.1532223300614026,-0.12,66.55802621853204,134.81703241626013,118.71750154595095,2.408458988906162,254.34088388562876,187.78285766709672,3.8213405405163825,1.2681103580102375,2.948439664576197,0.1327,28.1605,11.143600000000001,0.4151,0.6443626697214541,10.65747694171964,138.65565853673743,230.0,85.2,3.11,11.7,,,-1.703175014569744,1.8482031347379502
0.0,0.0,0.0,0.0031,0.0458,0.076,0.0212,0.0089,0.0192,0.0411,0.0499,0.0577,0.0602,0.0597,0.0451,0.0278,0.015,0.0116,0.0099,0.0149,0.022,0.062,0.2729,1.2784,3.2973,4.6191,4.0904,3.2962,3.1795,3.6614,4.374,4.6556,3.6811,1.7213,0.3512,0.0386,39.1681,1.0117,11.13,0.075,0.9992,0.12,-5.0,2021.0,7.0,9.0,9.0,48.0,36.0,7/9/2021,9:48:36 AM,7/09/2021 9:48:36,6.554,137.06,39.1684,47.0,2361.0,2718.0,3207.0,0.0,23233.0,5808.0,0.0,0.856,6.241,9:48:36 AM,51.27716782,2.61399383,0.1,RTK       ,,,,,,,,,,,,,,,,2021-07-09 09:48:36,3.266999999999998,3.2735806148357267,,3.1535806148357266,-0.12,66.69234313139874,132.33980496507726,115.37948626832602,2.3701739013817753,250.9861370938951,184.29379396249635,3.7633426163989565,1.2449929145906218,2.963859012150847,0.1249,28.1896,10.447799999999999,0.4058,0.6495459723202588,10.869652372042532,137.27680280258164,230.0,85.2,3.11,9.9,,,-1.7187057993390074,1.835941871458309
0.0,0.0,0.0,0.0025,0.0465,0.0784,0.0187,0.007,0.0162,0.0371,0.0467,0.0561,0.0607,0.0628,0.0487,0.0298,0.0156,0.0118,0.0099,0.0149,0.0221,0.0626,0.2776,1.2989,3.2951,4.5622,4.0089,3.2191,3.1304,3.677,4.4736,4.7605,3.6973,1.6715,0.3215,0.0321,39.0738,1.0117,11.12,0.075,0.9998,0.13,-5.0,2021.0,7.0,9.0,9.0,48.0,37.0,7/9/2021,9:48:37 AM,7/09/2021 9:48:37,6.554,137.36,39.074,47.0,2370.0,2715.0,3207.0,0.0,23234.0,5818.0,0.0,0.855,6.264,9:48:37 AM,51.27716823,2.61399483,0.4,RTK       ,,,,,,,,,,,,,,,,2021-07-09 09:48:37,3.3419999999999943,3.273943758895092,,3.1439437588950923,-0.13,66.59042964999088,133.58542964862664,115.65512349546552,2.3729837587473406,250.1889908595579,183.598561209567,3.7571313501743138,1.246702226425307,2.958962745232793,0.1274,28.0641,10.4829,0.3994,0.6491612937201742,10.840380843618513,137.56867982579652,230.0,85.2,3.11,11.7,,,-1.7210706401938367,1.832910212539276
0.0,0.0,0.0,0.0041,0.0518,0.076,0.0198,0.0079,0.0163,0.0344,0.0442,0.0558,0.0626,0.0655,0.0514,0.0319,0.0172,0.0131,0.0112,0.0166,0.0245,0.0684,0.2958,1.3408,3.3558,4.601,4.0268,3.2184,3.0949,3.6011,4.4086,4.8158,3.9055,1.8763,0.3955,0.0451,39.65410000000001,1.0083,11.12,0.075,0.9998,0.12,-5.0,2021.0,7.0,9.0,9.0,48.0,38.0,7/9/2021,9:48:38 AM,7/09/2021 9:48:38,6.554,138.16,39.6543,47.0,2366.0,2712.0,3204.0,0.0,23233.0,5830.0,0.0,0.852,6.4,9:48:38 AM,51.27716763,2.61399733,0.5,RTK       ,,,,,,,,,,,,,,,,2021-07-09 09:48:38,3.551999999999995,3.2743237681031037,,3.1543237681031036,-0.12,66.40154552897991,134.38755316755135,118.53863199700952,2.4090623236736057,253.94738369568825,187.54583816670834,3.824419773254478,1.2684717173172597,2.944151161797286,0.1319,28.076999999999998,11.0382,0.40700000000000003,0.6442819763450832,10.576584209499538,138.3870115221474,230.0,85.2,3.11,11.7,,,-1.6850241155750605,1.8462307608057968
0.0,0.0,0.0,0.0029,0.048,0.0765,0.0185,0.0072,0.0161,0.0367,0.0474,0.0593,0.0648,0.0657,0.049,0.0288,0.0148,0.0111,0.0091,0.0135,0.0197,0.0569,0.2649,1.3029,3.3919,4.6881,4.0716,3.2349,3.1125,3.6149,4.3791,4.7264,3.8065,1.7965,0.3594,0.037,39.4326,1.0049,11.13,0.075,0.9992,0.12,-5.0,2021.0,7.0,9.0,9.0,48.0,39.0,7/9/2021,9:48:39 AM,7/09/2021 9:48:39,6.554,137.41,39.4328,47.0,2365.0,2715.0,3211.0,0.0,23232.0,5848.0,0.0,0.85,6.512,9:48:39 AM,51.27716692,2.61400067,0.4,RTK       ,,,,,,,,,,,,,,,,2021-07-09 09:48:39,3.531999999999999,3.2747491571442926,,3.1547491571442925,-0.12,66.5814902690878,132.901766517512,117.1006174932591,2.3957294688285757,252.31028456461883,185.72879429553103,3.78949590261365,1.2604650049484731,2.950428359269689,0.1274,28.171100000000003,10.7258,0.4083,0.6460722869300582,10.650832110095216,137.63546891306922,230.0,85.2,3.11,11.7,,,-1.6864296632175828,1.8387375955743506
0.0,0.0,0.0,0.005,0.054,0.0733,0.0193,0.0079,0.0164,0.0346,0.0433,0.0555,0.0619,0.0635,0.0473,0.0275,0.0139,0.0102,0.0084,0.0127,0.0188,0.0559,0.268,1.3303,3.4557,4.7158,4.0718,3.2154,3.0627,3.5533,4.3545,4.798,3.9927,2.0113,0.452,0.0553,39.96619999999999,1.0104,11.12,0.075,0.9992,0.12,-5.0,2021.0,7.0,9.0,9.0,48.0,40.0,7/9/2021,9:48:40 AM,7/09/2021 9:48:40,6.554,138.78,39.9663,47.0,2370.0,2716.0,3213.0,0.0,23233.0,5852.0,0.0,0.854,6.295,9:48:40 AM,51.27716688,2.61400283,0.3,RTK       ,,,,,,,,,,,,,,,,2021-07-09 09:48:40,3.343499999999995,3.275217696627052,,3.155217696627052,-0.12,66.60356307485534,134.42352425799626,120.05515057662518,2.429409594891347,256.2172263977589,189.61366332290356,3.8468996937866207,1.280605746746752,2.9236375731046444,0.1323,28.133499999999998,11.3093,0.3911,0.6415782443843846,10.512427633091244,139.01562307789797,230.0,85.2,3.11,11.7,,,-1.6512908236823036,1.8460368740163904
0.0,0.0,0.0,0.0039,0.0519,0.0734,0.018,0.0072,0.0155,0.0341,0.0443,0.056,0.062,0.0635,0.0472,0.0272,0.0139,0.0102,0.0084,0.0124,0.0181,0.0537,0.262,1.3305,3.4793,4.7489,4.0752,3.2031,3.0522,3.5599,4.3707,4.7805,3.8977,1.8722,0.389,0.0427,39.6848,1.0076,11.12,0.075,0.9992,0.12,-5.0,2021.0,7.0,9.0,9.0,48.0,41.0,7/9/2021,9:48:41 AM,7/09/2021 9:48:41,6.554,137.87,39.6847,47.0,2365.0,2713.0,3199.0,0.0,23233.0,5862.0,0.0,0.852,6.403,9:48:41 AM,51.27716707,2.6140035,0.2,RTK       ,,,,,,,,,,,,,,,,2021-07-09 09:48:41,3.404249999999994,3.2757078108953013,,3.155707810895301,-0.12,66.5215967759132,133.23828784347523,118.60809839262494,2.4176011218387496,253.7312607328246,187.2096639569114,3.8142689446790032,1.2735762350688975,2.9332235899084105,0.1292,28.1846,10.9821,0.3889,0.6431431904759722,10.543523295839291,138.09306699246716,230.0,85.2,3.11,11.7,,,-1.651873690362561,1.838572656432202
0.0,0.0,0.0,0.0036,0.049,0.076,0.02,0.0081,0.0172,0.0368,0.045,0.0549,0.0595,0.0604,0.045,0.0262,0.0133,0.0097,0.0078,0.0116,0.0171,0.0525,0.2653,1.3665,3.5348,4.725,4.0016,3.1415,3.0192,3.5478,4.3645,4.7482,3.8222,1.8135,0.3736,0.0411,39.3785,1.009,11.13,0.075,0.9998,0.12,-5.0,2021.0,7.0,9.0,9.0,48.0,42.0,7/9/2021,9:48:42 AM,7/09/2021 9:48:42,6.554,137.32,39.3782,47.0,2364.0,2714.0,3214.0,0.0,23233.0,5867.0,0.0,0.853,6.373,9:48:42 AM,51.27716682,2.614006,0.5,RTK       ,,,,,,,,,,,,,,,,2021-07-09 09:48:42,3.4649999999999928,3.2762185250733618,,3.1562185250733616,-0.12,66.23997685281874,132.8179421959125,118.3256466259224,2.421323945945356,252.8531374001973,186.61316054737858,3.8172286497324994,1.275796108640463,2.9447627517644848,0.1286,28.0649,10.7986,0.38639999999999997,0.6426485788384548,10.563996842597978,137.54199216388616,230.0,85.2,3.11,11.7,,,-1.6575356881925196,1.8403575957938154
0.0,0.0,0.0,0.0041,0.0506,0.0754,0.0202,0.0081,0.0166,0.035,0.0436,0.0547,0.0602,0.0615,0.0456,0.0269,0.014,0.0106,0.0091,0.0138,0.0205,0.0604,0.2853,1.384,3.4903,4.6727,4.0046,3.1714,3.0424,3.5664,4.3996,4.8106,3.9061,1.8841,0.4004,0.0462,39.695,1.009,11.12,0.075,0.9986,0.11,-5.0,2021.0,7.0,9.0,9.0,48.0,43.0,7/9/2021,9:48:43 AM,7/09/2021 9:48:43,6.554,137.98,39.6947,47.0,2367.0,2716.0,3220.0,0.0,23231.0,5865.0,0.0,0.854,6.326,9:48:43 AM,51.27716637,2.614009,0.3,RTK       ,,,,,,,,,,,,,,,,2021-07-09 09:48:43,3.4549999999999947,3.2767597702791,,3.1667597702791,-0.11,66.2345036386136,133.89909140931297,119.07886012676917,2.4246100454330133,254.05842602190154,187.82392238328794,3.8357413744365974,1.277752734615898,2.9357529680992407,0.1301,28.1311,11.0474,0.3864,0.6422129369929634,10.502019745722942,138.20524959753234,230.0,85.2,3.11,11.7,,,-1.6532970112778897,1.8429528946481317
0.0,0.0,0.0,0.0039,0.0524,0.0759,0.0188,0.0075,0.0159,0.0341,0.043,0.0536,0.0598,0.0621,0.0471,0.0276,0.0141,0.0103,0.0084,0.0123,0.018,0.0539,0.2654,1.3452,3.4838,4.714,4.0395,3.1763,3.0253,3.5413,4.3923,4.8572,3.9629,1.8865,0.3849,0.0415,39.73479999999999,1.0097,11.12,0.075,0.9992,0.13,-5.0,2021.0,7.0,9.0,9.0,48.0,44.0,7/9/2021,9:48:44 AM,7/09/2021 9:48:44,6.554,138.25,39.7346,47.0,2369.0,2714.0,3200.0,0.0,23234.0,5873.0,0.0,0.854,6.322,9:48:44 AM,51.27716617,2.61401083,0.2,RTK       ,,,,,,,,,,,,,,,,2021-07-09 09:48:44,3.4049999999999976,3.2773301793770004,,3.1473301793770005,-0.13,66.4800428368347,134.10505642822244,119.3761314274958,2.425619773986472,254.08095624461657,187.6009134077819,3.8219132449751907,1.2783534197182536,2.936178413991737,0.13219999999999998,28.086,11.133,0.3836,0.6420792539966357,10.578836062674776,138.4746260619652,230.0,85.2,3.11,11.7,,,-1.6617724759548864,1.840504153998941
0.0,0.0,0.0,0.0033,0.0478,0.0758,0.0198,0.008,0.0173,0.0381,0.0475,0.0588,0.0626,0.0604,0.0419,0.0233,0.0117,0.0087,0.0073,0.011,0.0163,0.0502,0.2566,1.3452,3.5117,4.7173,4.0186,3.1719,3.0393,3.5468,4.3382,4.7229,3.7976,1.7848,0.361,0.0388,39.2605,1.0104,11.12,0.075,1.0004,0.12,-5.0,2021.0,7.0,9.0,9.0,48.0,45.0,7/9/2021,9:48:45 AM,7/09/2021 9:48:45,6.554,137.17,39.2602,47.0,2368.0,2714.0,3199.0,0.0,23232.0,5881.0,0.0,0.853,6.342,9:48:45 AM,51.27716605,2.61401283,0.2,RTK       ,,,,,,,,,,,,,,,,2021-07-09 09:48:45,3.282999999999998,3.2779148190237932,,3.157914819023793,-0.12,66.3434444580716,132.4258697581067,117.81120179049614,2.4134506672842213,252.36514812864525,186.02170367057363,3.8039198927655544,1.2710973373307617,2.9477658223695,0.1269,28.039099999999998,10.7051,0.3894,0.6436959653844235,10.633153850023078,137.38791450698852,230.0,85.2,3.11,9.9,,,-1.6698304159295596,1.8389856514488745
0.0,0.0,0.0,0.0049,0.0554,0.075,0.019,0.0075,0.0152,0.0321,0.0417,0.0546,0.0618,0.0637,0.0478,0.028,0.0144,0.0105,0.0086,0.0127,0.0185,0.0557,0.2735,1.3695,3.5124,4.7374,4.0735,3.2144,3.0644,3.5793,4.4028,4.7934,3.8629,1.8408,0.3878,0.0446,39.7838,1.0049,11.12,0.075,0.9998,0.11,-5.0,2021.0,7.0,9.0,9.0,48.0,46.0,7/9/2021,9:48:46 AM,7/09/2021 9:48:46,6.554,137.5,39.7836,47.0,2366.0,2713.0,3213.0,0.0,23231.0,5852.0,0.0,0.849,6.535,9:48:46 AM,51.27716623,2.61401533,0.4,RTK       ,,,,,,,,,,,,,,,,2021-07-09 09:48:46,3.292999999999996,3.2784959081602647,,3.168495908160265,-0.11,66.32311718373633,132.9074072653284,118.21020455333372,2.4155543928303995,253.10765068299403,186.7845334992577,3.816280980608987,1.2723543393703465,2.9344220715434965,0.1353,28.333199999999998,10.929499999999999,0.38580000000000003,0.6434156043592417,10.642529773769846,137.72480832133576,230.0,85.2,3.11,11.7,,,-1.6655359745972755,1.840488565278034
0.0,0.0,0.0,0.0041,0.0527,0.0762,0.0193,0.0078,0.0168,0.0361,0.0446,0.0541,0.0581,0.0571,0.0409,0.0233,0.012,0.009,0.0077,0.0118,0.0178,0.0541,0.2679,1.3576,3.5118,4.7628,4.096,3.2292,3.0678,3.544,4.3002,4.6374,3.7148,1.7683,0.3719,0.0424,39.2756,1.0083,11.12,0.075,0.9998,0.12,-5.0,2021.0,7.0,9.0,9.0,48.0,47.0,7/9/2021,9:48:47 AM,7/09/2021 9:48:47,6.554,136.59,39.2755,47.0,2364.0,2715.0,3217.0,0.0,23232.0,5846.0,0.0,0.852,6.4,9:48:47 AM,51.27716642,2.614018,0.4,RTK       ,,,,,,,,,,,,,,,,2021-07-09 09:48:47,3.3629999999999964,3.2790714307914905,,3.1590714307914904,-0.12,66.29369187579944,130.96846641541578,116.83719978353501,2.4043592905686495,251.88264380001337,185.58895192421392,3.799496402642848,1.2656524983746609,2.9392813161521483,0.133,28.2377,10.5348,0.3701,0.6449117905289713,10.748074876946994,136.80566596215024,85.2,230.0,3.11,9.9,,,-1.6636483074279358,1.8361305615732917
0.0078,0.023,0.0425,0.0663,0.0686,0.0393,0.0182,0.0115,0.0134,0.0178,0.0264,0.042,0.0552,0.0585,0.0444,0.0276,0.0167,0.0133,0.0135,0.021,0.0322,0.0892,0.355,1.4531,3.6443,4.9132,4.2235,3.2856,3.0159,3.3567,4.0538,4.7267,4.7427,3.4834,1.4765,0.4537,43.932500000000005,1.0076,11.13,0.075,0.9998,0.11,-5.0,2021.0,7.0,9.0,9.0,48.0,48.0,7/9/2021,9:48:48 AM,7/09/2021 9:48:48,6.554,145.83,43.9322,47.0,2367.0,2716.0,3203.0,0.0,23231.0,5503.0,0.0,0.852,6.427,9:48:48 AM,51.27716593,2.6140205,0.4,RTK       ,,,,,,,,,,,,,,,,2021-07-09 09:48:48,3.4029999999999956,3.2796529599429785,,3.1696529599429786,-0.11,66.5168848707352,142.2606000581747,138.62822581912116,2.6342833837154074,287.0453845128269,220.5284996420917,4.315376239742032,1.3974105522344287,2.915563412822456,0.2475,28.470299999999998,14.883000000000001,0.3317,0.616124890190263,11.499238632779745,146.22994885016283,85.2,273.0,2.63,11.7,,,-1.7707736579779145,1.9635610424232721
0.0111,0.0306,0.053,0.0759,0.0709,0.0374,0.0168,0.0106,0.0119,0.0151,0.0228,0.0367,0.0504,0.0567,0.0461,0.0297,0.018,0.0141,0.0139,0.0213,0.0323,0.0899,0.3613,1.4827,3.7125,4.9456,4.1771,3.189,2.9009,3.2464,4.0017,4.8025,4.9301,3.6514,1.5356,0.4625,44.16450000000001,1.009,11.12,0.075,0.9992,0.12,-5.0,2021.0,7.0,9.0,9.0,48.0,49.0,7/9/2021,9:48:49 AM,7/09/2021 9:48:49,6.554,146.42,44.1644,47.0,2366.0,2714.0,3200.0,0.0,23232.0,5184.0,0.0,0.853,6.349,9:48:49 AM,51.27716538,2.61402217,0.2,RTK       ,,,,,,,,,,,,,,,,2021-07-09 09:48:49,3.261999999999998,3.2802407708026555,,3.1602407708026554,-0.12,66.32798964003362,143.93684627123585,141.82265495744838,2.677236472768151,289.25508682937544,222.92709718934182,4.360980762407875,1.420744573802264,2.9188461856709784,0.2789,28.188699999999997,15.382100000000001,0.3148,0.6111624082710583,11.829119650893597,146.83031928619644,85.2,273.0,2.23,11.7,,,-1.8365738503748061,1.9849827027346092
0.0,0.0,0.0,0.0022,0.0413,0.0717,0.0181,0.0073,0.0169,0.0388,0.0476,0.057,0.061,0.0612,0.0437,0.0237,0.0112,0.0079,0.0061,0.0091,0.0134,0.0427,0.2365,1.3395,3.6038,4.8155,4.0048,3.0904,2.947,3.5063,4.4288,4.9351,3.9738,1.7981,0.3345,0.0315,39.62649999999999,1.007,11.12,0.075,0.9998,0.12,-5.0,2021.0,7.0,9.0,9.0,48.0,50.0,7/9/2021,9:48:50 AM,7/09/2021 9:48:50,6.554,138.0,39.6266,47.0,2367.0,2715.0,3218.0,0.0,23232.0,5358.0,0.0,0.851,6.454,9:48:50 AM,51.2771658,2.61402383,0.3,RTK       ,,,,,,,,,,,,,,,,2021-07-09 09:48:50,3.1919999999999975,3.2808155479964376,,3.1608155479964375,-0.12,66.48459075493015,133.91973376340889,119.4973192274233,2.43521278142869,252.62323919937901,186.13864844444885,3.799726167083999,1.2840478360859109,2.9424218020988318,0.1152,28.0518,11.073,0.3865,0.6408133381245376,10.31273595307948,138.21237680885937,230.0,85.2,3.11,11.7,,,-1.6183835495279453,1.8304218040555786
0.0,0.0,0.0,0.0011,0.0333,0.0721,0.0173,0.0067,0.017,0.0418,0.0495,0.0557,0.0581,0.0584,0.0414,0.0222,0.0102,0.0072,0.0055,0.0083,0.0124,0.0409,0.2344,1.3372,3.5109,4.7082,4.0155,3.1633,3.0262,3.5659,4.4194,4.777,3.6674,1.5452,0.2588,0.0208,38.80930000000001,1.009,11.12,0.075,0.9998,0.12,-5.0,2021.0,7.0,9.0,9.0,48.0,51.0,7/9/2021,9:48:51 AM,7/09/2021 9:48:51,6.554,136.51,38.8098,47.0,2374.0,2714.0,3215.0,0.0,23232.0,5323.0,0.0,0.853,6.373,9:48:51 AM,51.27716613,2.6140265,0.5,RTK       ,,,,,,,,,,,,,,,,2021-07-09 09:48:51,3.1919999999999975,3.281360294871265,,3.161360294871265,-0.12,66.45651743115657,131.61418618391116,115.57556318207993,2.3877604049553267,247.9880341026175,181.5315166714609,3.731583352370405,1.2556580795153636,2.9122938941779095,0.1065,28.0553,10.2692,0.3783,0.6471495103095427,10.492004835484456,136.70684205915975,230.0,85.2,3.11,11.7,,,-1.6340636276364298,1.813937986919204
0.0,0.0,0.0,0.0036,0.0501,0.0729,0.0178,0.0072,0.0156,0.0344,0.0433,0.0539,0.0589,0.0588,0.042,0.0232,0.0115,0.0085,0.007,0.0106,0.0157,0.0492,0.2583,1.3692,3.5603,4.779,4.0744,3.1848,3.0051,3.5005,4.3117,4.6994,3.7618,1.7592,0.3556,0.038,39.241499999999995,1.0097,11.12,0.075,0.9992,0.12,-5.0,2021.0,7.0,9.0,9.0,48.0,52.0,7/9/2021,9:48:52 AM,7/09/2021 9:48:52,6.554,136.78,39.2413,47.0,2371.0,2712.0,3201.0,0.0,23233.0,5655.0,0.0,0.854,6.322,9:48:52 AM,51.27716582,2.6140285,0.1,RTK       ,,,,,,,,,,,,,,,,2021-07-09 09:48:52,3.271999999999996,3.281876148308062,,3.1618761483080617,-0.12,66.26424976097778,131.24160241047008,117.54145159669253,2.415449962139838,251.83315681652525,185.56890705554747,3.8004377582922064,1.2722919665681949,2.933654096369614,0.1266,28.1343,10.614,0.3666,0.6434295130741176,10.551035585021584,136.99265218526384,85.2,230.0,3.11,9.9,,,-1.629113179435636,1.8314133116109923
0.0,0.0,0.0,0.0066,0.0619,0.0708,0.0169,0.0071,0.0147,0.0308,0.0391,0.0502,0.0568,0.0576,0.0412,0.0224,0.0111,0.0081,0.0068,0.0106,0.0161,0.0516,0.2764,1.4543,3.6992,4.8096,4.0308,3.1421,2.973,3.4912,4.3737,4.9017,4.0692,1.9771,0.4205,0.0487,40.247899999999994,1.0035,11.12,0.075,0.9998,0.12,-5.0,2021.0,7.0,9.0,9.0,48.0,53.0,7/9/2021,9:48:53 AM,7/09/2021 9:48:53,6.554,138.25,40.2479,47.0,2360.0,2717.0,3210.0,0.0,23232.0,5654.0,0.0,0.848,6.59,9:48:53 AM,51.27716535,2.61402967,0.3,RTK       ,,,,,,,,,,,,,,,,2021-07-09 09:48:53,3.4009999999999967,3.282381247985643,,3.162381247985643,-0.12,66.0703904698335,133.70324105531566,121.10042672491416,2.4589381488461264,255.4397722152836,189.36938174545008,3.866176215984566,1.2980354464121513,2.9065058989712687,0.13929999999999998,28.3435,11.417200000000001,0.3479,0.6377143616039338,10.45680595302984,138.47704166554175,230.0,85.2,3.11,11.7,,,-1.6113269969310242,1.8413706899230262
0.0,0.0,0.0,0.0064,0.0557,0.0676,0.0186,0.0085,0.0168,0.0333,0.0409,0.0507,0.0551,0.0544,0.0384,0.0211,0.0106,0.0079,0.0068,0.0107,0.0167,0.0529,0.2761,1.4236,3.639,4.8071,4.0808,3.1967,2.9961,3.4647,4.2847,4.7806,4.0422,2.0543,0.4685,0.0587,40.14619999999999,1.0097,11.13,0.075,0.9998,0.1,-5.0,2021.0,7.0,9.0,9.0,48.0,54.0,7/9/2021,9:48:54 AM,7/09/2021 9:48:54,6.554,138.51,40.1463,47.0,2364.0,2716.0,3217.0,0.0,23229.0,5627.0,0.0,0.853,6.346,9:48:54 AM,51.27716542,2.61403333,0.7,RTK       ,,,,,,,,,,,,,,,,2021-07-09 09:48:54,3.3709999999999956,3.2828944968048828,,3.1828944968048827,-0.1,66.23872023858836,133.18923747547382,121.20973528850628,2.4564788630424608,256.9050009468828,190.66628070829444,3.8784716857681523,1.2965918253641129,2.902294231718587,0.12969999999999998,28.2638,11.4043,0.3484,0.6380335032761367,10.305111667754936,138.7514671824782,85.2,230.0,3.11,9.9,,,-1.5779445649625137,1.8402618383034748
0.0,0.0,0.0,0.0059,0.0569,0.0697,0.018,0.0077,0.0154,0.0312,0.0378,0.0476,0.0532,0.0546,0.0393,0.0213,0.0104,0.0076,0.0064,0.0101,0.0158,0.0513,0.2763,1.4431,3.6566,4.8164,4.0927,3.1765,2.9315,3.3801,4.2283,4.7873,4.0827,2.0654,0.4581,0.0543,40.0095,1.0097,11.12,0.075,0.9998,0.1,-5.0,2021.0,7.0,9.0,9.0,48.0,55.0,7/9/2021,9:48:55 AM,7/09/2021 9:48:55,6.554,138.47,40.0093,47.0,2368.0,2713.0,3209.0,0.0,23229.0,5623.0,0.0,0.853,6.346,9:48:55 AM,51.27716557,2.614037,0.3,RTK       ,,,,,,,,,,,,,,,,2021-07-09 09:48:55,3.180999999999998,3.2834082087402554,,3.1834082087402553,-0.1,66.15225985361036,132.82811455499984,121.93465424818294,2.468545511396565,257.16751969222076,191.0152598386104,3.887509213764002,1.303661243604779,2.897174085416885,0.1325,28.0927,11.4478,0.3365,0.6364721876451964,10.24968602731567,138.70962804937466,85.2,230.0,3.11,11.7,,,-1.5618731084249178,1.8401789815512428
0.0,0.0,0.0,0.0039,0.0485,0.0706,0.0185,0.0078,0.0165,0.0346,0.0402,0.0491,0.0545,0.0568,0.0418,0.0236,0.0117,0.0086,0.0071,0.0108,0.0161,0.0515,0.2756,1.4422,3.6197,4.7695,4.1092,3.2538,3.0256,3.4475,4.229,4.6826,3.8676,1.8634,0.3867,0.0424,39.587,1.007,11.12,0.075,0.9998,0.12,-5.0,2021.0,7.0,9.0,9.0,48.0,56.0,7/9/2021,9:48:56 AM,7/09/2021 9:48:56,6.554,136.99,39.5868,47.0,2371.0,2713.0,3202.0,0.0,23232.0,5624.0,0.0,0.851,6.454,9:48:56 AM,51.27716607,2.61403783,0.1,RTK       ,,,,,,,,,,,,,,,,2021-07-09 09:48:56,3.1509999999999967,3.2838954055402727,,3.1638954055402726,-0.12,66.04577300178187,130.73781333856837,118.69554115013867,2.431497527330479,253.56855786152218,187.5227848597403,3.8392851856648127,1.2818451244534894,2.9219330423594028,0.123,28.2662,10.842699999999999,0.35509999999999997,0.641302722877463,10.290422060335624,137.21258163931068,85.2,230.0,3.11,11.7,,,-1.5722488604795197,1.8309891091462125
0.0,0.0,0.0,0.0036,0.0464,0.0696,0.0186,0.008,0.0171,0.036,0.0422,0.0506,0.0544,0.0542,0.038,0.0207,0.0103,0.0078,0.0067,0.0106,0.0165,0.0528,0.2776,1.4297,3.5872,4.7609,4.1098,3.236,2.9976,3.4377,4.2611,4.7423,3.8971,1.8578,0.3812,0.0414,39.5815,1.0104,11.12,0.075,0.9998,0.11,-5.0,2021.0,7.0,9.0,9.0,48.0,57.0,7/9/2021,9:48:57 AM,7/09/2021 9:48:57,6.554,137.35,39.5813,47.0,2367.0,2715.0,3209.0,0.0,23231.0,5885.0,0.0,0.854,6.319,9:48:57 AM,51.27716618,2.61403933,0.4,RTK       ,,,,,,,,,,,,,,,,2021-07-09 09:48:57,3.391999999999993,3.2843560017853064,,3.1743560017853065,-0.11,66.14637756644171,131.3798477288348,118.99791683668276,2.4323066207845847,253.5814819113914,187.43510434494968,3.833641255058566,1.282325108880935,2.9203479854478505,0.11959999999999998,28.192,10.9198,0.35009999999999997,0.6411960510894454,10.279332600965889,137.57469945545236,85.2,230.0,3.11,9.9,,,-1.5720178615173988,1.8289192834705743
0.0,0.0,0.0,0.0057,0.055,0.0697,0.0186,0.008,0.0156,0.0308,0.0381,0.0478,0.0538,0.0562,0.0419,0.0238,0.0121,0.0089,0.0075,0.0114,0.017,0.0529,0.2717,1.3878,3.5471,4.7809,4.1572,3.2734,3.0154,3.4144,4.2024,4.7351,4.0606,2.098,0.4832,0.06,40.062,1.0104,11.12,0.075,0.9998,0.12,-5.0,2021.0,7.0,9.0,9.0,48.0,58.0,7/9/2021,9:48:58 AM,7/09/2021 9:48:58,6.554,138.79,40.0618,47.0,2365.0,2716.0,3215.0,0.0,23232.0,5928.0,0.0,0.854,6.319,9:48:58 AM,51.2771655,2.614043,0.5,RTK       ,,,,,,,,,,,,,,,,2021-07-09 09:48:58,3.431999999999999,3.2848204845191047,,3.1648204845191046,-0.12,66.46774076211724,132.8166439367074,121.30463786825183,2.4509799637481553,257.71568310291104,191.2479423407938,3.877304691688784,1.2933586905208174,2.8975912925531175,0.1304,28.148,11.4369,0.3467,0.6387488327305495,10.292015710481188,139.0371663951513,85.2,230.0,3.11,11.7,,,-1.569508634657702,1.8388912607553591
0.0,0.0,0.0,0.0046,0.0547,0.0715,0.0171,0.0069,0.0144,0.0306,0.0379,0.0489,0.057,0.0614,0.0458,0.0252,0.012,0.0085,0.0067,0.0102,0.0152,0.0486,0.2594,1.3663,3.5269,4.7872,4.1694,3.2857,3.0494,3.4965,4.3102,4.7472,3.8497,1.8173,0.3729,0.0411,39.656400000000005,1.0076,11.12,0.075,0.9998,0.11,-5.0,2021.0,7.0,9.0,9.0,48.0,59.0,7/9/2021,9:48:59 AM,7/09/2021 9:48:59,6.554,137.3,39.6564,47.0,2365.0,2714.0,3202.0,0.0,23231.0,5950.0,0.0,0.852,6.427,9:48:59 AM,51.27716503,2.61404467,0.1,RTK       ,,,,,,,,,,,,,,,,2021-07-09 09:48:59,3.2519999999999922,3.2852972568834238,,3.175297256883424,-0.11,66.4706397476698,131.37358343674978,117.85613479920003,2.4124334282594893,252.71370505119302,186.24306530352322,3.801884651787968,1.2704891313775892,2.919344444273379,0.1308,28.3402,10.8282,0.3572,0.6438316631485826,10.597427529117981,137.51777387138927,85.2,230.0,3.11,11.7,,,-1.6212054553604325,1.8282125502377553
0.0,0.0,0.0,0.0048,0.0531,0.0715,0.019,0.0083,0.0171,0.0347,0.0417,0.0494,0.0532,0.0536,0.0393,0.0223,0.0112,0.0082,0.0068,0.0104,0.0156,0.0498,0.2657,1.4011,3.5992,4.7847,4.1218,3.2748,3.0792,3.5413,4.3345,4.7277,3.8052,1.802,0.3766,0.0428,39.726600000000005,1.007,11.12,0.075,0.9992,0.12,-5.0,2021.0,7.0,9.0,9.0,49.0,0.0,7/9/2021,9:49:00 AM,7/09/2021 9:49:00,6.554,137.01,39.7264,47.0,2370.0,2713.0,3214.0,0.0,23232.0,5953.0,0.0,0.851,6.431,9:49:00 AM,51.27716597,2.61404483,0.4,RTK       ,,,,,,,,,,,,,,,,2021-07-09 09:49:00,3.241999999999994,3.2857658004981,,3.1657658004980997,-0.12,66.27855330884438,131.17792736711638,117.48995753806909,2.41226402627482,252.29326360560688,186.0147102967625,3.8065596035262317,1.270387821230952,2.927181493750446,0.1294,28.493100000000002,10.754299999999999,0.3498,0.643854269390189,10.647268941680428,137.22553698644418,85.2,230.0,3.11,11.7,,,-1.6248882389538095,1.8284261740442536
0.0,0.0,0.0,0.0066,0.0573,0.0697,0.019,0.0084,0.0163,0.0321,0.0398,0.0502,0.056,0.0576,0.0423,0.0239,0.0121,0.0089,0.0074,0.0112,0.0166,0.0514,0.2645,1.3663,3.5392,4.7985,4.2065,3.3591,3.1242,3.5151,4.231,4.6412,3.9007,2.0089,0.4702,0.061,40.0732,1.0076,11.11,0.075,0.9992,0.1,-5.0,2021.0,7.0,9.0,9.0,49.0,1.0,7/9/2021,9:49:01 AM,7/09/2021 9:49:01,6.554,137.88,40.073,47.0,2371.0,2714.0,3215.0,0.0,23230.0,5953.0,0.0,0.852,6.403,9:49:01 AM,51.27716663,2.61404783,0.6,RTK       ,,,,,,,,,,,,,,,,2021-07-09 09:49:01,3.361999999999996,3.2862213013140558,,3.1862213013140557,-0.1,66.53534373145878,131.46977912262344,118.8830258722206,2.4214344961341285,255.95553939759418,189.42019566613538,3.846910905437692,1.275861976145955,2.907550662271276,0.1336,28.4999,11.082,0.3577,0.6426339086640761,10.558054433931584,138.12312233610828,85.2,230.0,3.11,11.7,,,-1.608062430114692,1.8371398125191039
0.0,0.0,0.0,0.0038,0.0488,0.0746,0.0203,0.0082,0.0166,0.0334,0.0392,0.0486,0.0552,0.0584,0.0427,0.0238,0.0117,0.0085,0.007,0.0105,0.0156,0.0499,0.2672,1.4044,3.5731,4.775,4.1239,3.2378,3.002,3.4396,4.2577,4.7574,3.9492,1.9225,0.4072,0.0456,39.739399999999996,1.0097,11.12,0.075,0.9992,0.1,-5.0,2021.0,7.0,9.0,9.0,49.0,2.0,7/9/2021,9:49:02 AM,7/09/2021 9:49:02,6.554,137.75,39.7398,47.0,2367.0,2715.0,3202.0,0.0,23230.0,5956.0,0.0,0.854,6.322,9:49:02 AM,51.2771658,2.61405183,0.4,RTK       ,,,,,,,,,,,,,,,,2021-07-09 09:49:02,3.331999999999995,3.286676135957242,,3.1866761359572418,-0.1,66.28550685070134,131.97416044935034,119.65027980586667,2.4369356229142767,254.70141820092923,188.41591135022787,3.8424903165424666,1.2850681395597845,2.92208291772992,0.1272,28.1722,11.0819,0.3581,0.6405867800264479,10.380795844765172,137.97944236353828,85.2,230.0,3.11,11.7,,,-1.5948422266550595,1.835063612142982
0.0,0.0,0.0,0.0049,0.0557,0.0711,0.017,0.0068,0.0142,0.0302,0.0378,0.0488,0.0556,0.058,0.0425,0.0237,0.0117,0.0086,0.0071,0.0107,0.0161,0.0506,0.2663,1.3929,3.5735,4.8004,4.1608,3.2811,3.0332,3.4429,4.2194,4.6775,3.8794,1.9023,0.4108,0.0478,39.6594,1.0083,11.12,0.075,0.9992,0.11,-5.0,2021.0,7.0,9.0,9.0,49.0,3.0,7/9/2021,9:49:03 AM,7/09/2021 9:49:03,6.554,137.35,39.6596,47.0,2365.0,2714.0,3208.0,0.0,23231.0,5956.0,0.0,0.853,6.376,9:49:03 AM,51.27716602,2.61405367,0.3,DGPS      ,,,,,,,,,,,,,,,,2021-07-09 09:49:03,3.311999999999992,3.287132648319391,,3.177132648319391,-0.11,66.31588862245663,130.93340358143178,118.82765769974957,2.4282469789488648,254.3117513958164,187.99586277335976,3.83485400977796,1.2799151667268567,2.9066080783802066,0.13169999999999998,28.2636,10.9178,0.3463,0.641731816043279,10.45663687084121,137.58514480185715,85.2,230.0,3.11,11.7,,,-1.5888665986714419,1.8318456072251605
0.0,0.0,0.0,0.0062,0.0586,0.0686,0.017,0.0074,0.015,0.0311,0.0386,0.0491,0.055,0.0555,0.0392,0.0212,0.0105,0.0079,0.0067,0.0107,0.0166,0.0539,0.2861,1.4608,3.6306,4.761,4.0959,3.2444,3.0273,3.4768,4.3082,4.8068,3.9669,1.9191,0.4105,0.0481,40.0113,1.0035,11.12,0.075,0.9998,0.12,-5.0,2021.0,7.0,9.0,9.0,49.0,4.0,7/9/2021,9:49:04 AM,7/09/2021 9:49:04,6.554,137.75,40.0113,47.0,2365.0,2715.0,3211.0,0.0,23232.0,5956.0,0.0,0.848,6.59,9:49:04 AM,51.27716753,2.61405667,0.5,DGPS      ,,,,,,,,,,,,,,,,2021-07-09 09:49:04,3.341999999999993,3.2875882498944216,,3.1675882498944214,-0.12,66.08097842068784,132.1900059446107,119.70743643371121,2.4398617000017593,254.50753676422462,188.42655834353678,3.851449280063118,1.286799373043738,2.9047007763679105,0.1334,28.3869,11.1514,0.3396,0.6402025433663807,10.449313747879737,137.97574912566412,230.0,85.2,3.11,11.7,,,-1.5938500704902367,1.8339638400224862
0.0,0.0,0.0,0.0057,0.059,0.0704,0.0164,0.0067,0.0138,0.0291,0.0363,0.0468,0.0528,0.0544,0.0391,0.0216,0.0109,0.0083,0.0073,0.0116,0.0181,0.0573,0.2931,1.4527,3.5763,4.7309,4.0926,3.2184,2.9642,3.3921,4.2456,4.8371,4.1289,2.0708,0.4499,0.0513,40.0695,1.007,11.12,0.075,0.9998,0.12,-5.0,2021.0,7.0,9.0,9.0,49.0,5.0,7/9/2021,9:49:05 AM,7/09/2021 9:49:05,6.554,138.9,40.0697,47.0,2368.0,2716.0,3213.0,0.0,23232.0,5956.0,0.0,0.851,6.454,9:49:05 AM,51.27716758,2.61405983,0.3,DGPS      ,,,,,,,,,,,,,,,,2021-07-09 09:49:05,3.1899999999999955,3.2880360168217986,,3.1680360168217985,-0.12,66.18896401199406,133.55896623044114,121.96074224397049,2.461901657441282,257.2134741164056,191.02451010441155,3.886047741581151,1.2997731334082956,2.8887607029488938,0.1351,28.0685,11.538,0.3279,0.6373304224118445,10.283378227368258,139.1390350190459,230.0,85.2,3.11,11.7,,,-1.5682920580807853,1.8379506567643955
0.0,0.0,0.0,0.0061,0.0586,0.0677,0.0163,0.007,0.0143,0.0295,0.0368,0.0472,0.0539,0.0566,0.042,0.0237,0.0123,0.0094,0.0082,0.0129,0.02,0.0617,0.3034,1.4381,3.4779,4.6785,4.1734,3.3282,3.04,3.4286,4.2385,4.7544,3.9686,1.9302,0.4091,0.0467,39.799800000000005,1.0056,11.1,0.075,0.9998,0.11,-5.0,2021.0,7.0,9.0,9.0,49.0,6.0,7/9/2021,9:49:06 AM,7/09/2021 9:49:06,6.554,137.88,39.8,47.0,2367.0,2712.0,3201.0,0.0,23231.0,5953.0,0.0,0.85,6.508,9:49:06 AM,51.27716775,2.61406067,0.1,DGPS      ,,,,,,,,,,,,,,,,2021-07-09 09:49:06,3.1399999999999983,3.288456245956633,,3.178456245956633,-0.11,66.20589704413806,131.83667934926083,119.39704903762366,2.428013932116518,254.83909774881278,188.63320070467472,3.849190315764727,1.2797766999040325,2.9031972750502653,0.13240000000000002,28.2188,11.109,0.3396,0.6417626128143575,10.431587685811607,138.1165212324889,230.0,85.2,3.11,11.7,,,-1.5907329032892854,1.83269838640586
0.0,0.0,0.0,0.0081,0.0626,0.0665,0.0168,0.0073,0.0142,0.028,0.0343,0.0455,0.0535,0.058,0.0438,0.0251,0.0132,0.0102,0.0089,0.014,0.0216,0.0653,0.3104,1.4341,3.4497,4.6326,4.1319,3.3067,3.0082,3.3567,4.1386,4.727,4.1171,2.1441,0.4968,0.0633,39.914100000000005,1.0083,11.12,0.075,0.9992,0.11,-5.0,2021.0,7.0,9.0,9.0,49.0,7.0,7/9/2021,9:49:07 AM,7/09/2021 9:49:07,6.554,139.11,39.9138,47.0,2368.0,2712.0,3206.0,0.0,23231.0,5950.0,0.0,0.853,6.376,9:49:07 AM,51.27716788,2.6140625,0.4,DGPS      ,,,,,,,,,,,,,,,,2021-07-09 09:49:07,3.279999999999992,3.2888426070519072,,3.1788426070519074,-0.11,66.23490889645474,133.25878713937212,122.13329953115421,2.456478367070213,258.75611809144675,192.52120919499203,3.9066426209774225,1.2965915340785719,2.8865697268566146,0.1372,27.8889,11.5483,0.3397,0.6380335676868188,10.292211278702482,139.36124004112403,230.0,85.2,3.11,11.7,,,-1.5757638042331683,1.8451649352716892
0.0,0.0,0.0,0.0075,0.0618,0.0649,0.0159,0.0073,0.0149,0.0307,0.037,0.0461,0.0512,0.0515,0.0368,0.0204,0.0108,0.0087,0.0082,0.0139,0.0233,0.0717,0.3356,1.4882,3.457,4.5949,4.1256,3.3389,3.058,3.4239,4.2063,4.7279,3.9755,1.9507,0.4197,0.0493,39.7341,1.0056,11.12,0.075,0.9998,0.11,-5.0,2021.0,7.0,9.0,9.0,49.0,8.0,7/9/2021,9:49:08 AM,7/09/2021 9:49:08,6.554,137.95,39.7342,47.0,2367.0,2719.0,3218.0,0.0,23231.0,5938.0,0.0,0.85,6.508,9:49:08 AM,51.27716698,2.614066,0.5,DGPS      ,,,,,,,,,,,,,,,,2021-07-09 09:49:08,3.319999999999998,3.289212221557838,,3.179212221557838,-0.11,65.9615595616864,131.95376887513996,119.66580729204446,2.431338389627753,255.31241809800986,189.35085853632347,3.8706243423375244,1.2817506992339083,2.89516755470221,0.13419999999999999,28.1542,11.123099999999999,0.3226,0.6413237100367596,10.443243815601907,138.1896295927377,230.0,85.2,3.11,11.7,,,-1.586944893900413,1.8342760498038548
0.0,0.0,0.0,0.0101,0.0634,0.0619,0.0165,0.0079,0.015,0.0287,0.034,0.0437,0.051,0.0554,0.0432,0.0259,0.0145,0.0117,0.0109,0.0176,0.028,0.0811,0.3537,1.4869,3.3938,4.5101,4.0953,3.3532,3.0805,3.4254,4.1663,4.6401,3.917,1.9899,0.4626,0.0617,39.557,1.0104,11.12,0.075,0.9992,0.1,-5.0,2021.0,7.0,9.0,9.0,49.0,9.0,7/9/2021,9:49:09 AM,7/09/2021 9:49:09,6.554,137.96,39.5569,47.0,2369.0,2716.0,3209.0,0.0,23230.0,5949.0,0.0,0.854,6.295,9:49:09 AM,51.27716652,2.614069,0.4,DGPS      ,,,,,,,,,,,,,,,,2021-07-09 09:49:09,3.060999999999997,3.2895629879524315,,3.1895629879524314,-0.1,65.82111777791863,131.9986414189363,119.65034914906619,2.4290882003221204,256.312508156305,190.49139037838637,3.8940771109525514,1.2804148752587277,2.8931292114694918,0.1354,28.014499999999998,11.0713,0.3358,0.6416206868414535,10.373019986446645,138.20277754632326,230.0,85.2,2.63,11.7,,,-1.5854531837479844,1.8414733781782207
0.0,0.0,0.0,0.0076,0.0605,0.0676,0.0178,0.008,0.0153,0.0291,0.0345,0.043,0.0496,0.0542,0.0423,0.0255,0.0141,0.0115,0.0105,0.0167,0.0263,0.0767,0.3431,1.4865,3.44,4.575,4.109,3.3207,3.0386,3.394,4.1703,4.7147,4.0548,2.0836,0.4792,0.0607,39.88099999999999,1.0063,11.12,0.075,0.9986,0.1,-5.0,2021.0,7.0,9.0,9.0,49.0,10.0,7/9/2021,9:49:10 AM,7/09/2021 9:49:10,6.554,138.6,39.8811,47.0,2369.0,2711.0,3204.0,0.0,23230.0,5964.0,0.0,0.851,6.434,9:49:10 AM,51.27716722,2.6140715,0.3,DGPS      ,,,,,,,,,,,,,,,,2021-07-09 09:49:10,2.9509999999999974,3.289859363090331,,3.189859363090331,-0.1,65.92479085824466,132.8281466169862,121.24291563884725,2.448243454413553,257.69880203476316,191.7740111765185,3.908981715071075,1.2917470273979177,2.8934411891988887,0.1357,28.018900000000002,11.393,0.3334,0.6391057118585062,10.262755570001866,138.84881105366088,230.0,85.2,3.11,11.7,,,-1.5706463738213883,1.8433912538199495
0.0,0.0,0.0,0.0072,0.0626,0.0677,0.0162,0.0071,0.0143,0.0292,0.0359,0.0455,0.0521,0.0548,0.0407,0.0232,0.0122,0.0095,0.0086,0.0141,0.0227,0.0701,0.3313,1.484,3.4585,4.5725,4.0691,3.285,3.0267,3.4156,4.2244,4.7787,4.053,2.0108,0.4369,0.0517,39.7919,1.0056,11.11,0.075,0.9992,0.12,-5.0,2021.0,7.0,9.0,9.0,49.0,11.0,7/9/2021,9:49:11 AM,7/09/2021 9:49:11,6.554,138.54,39.7921,47.0,2366.0,2711.0,3209.0,0.0,23233.0,5960.0,0.0,0.85,6.485,9:49:11 AM,51.2771672,2.61407383,0.4,DGPS      ,,,,,,,,,,,,,,,,2021-07-09 09:49:11,3.081,3.2900811784405426,,3.1700811784405425,-0.12,65.9694415445511,133.21741841538596,120.8476788172564,2.4438956023657283,256.44000012969485,190.47055858514375,3.887254373019262,1.2891826578382548,2.8951683420411403,0.1375,27.9921,11.3311,0.3312,0.6396739649140452,10.400353167628511,138.77661300934574,230.0,85.2,3.11,11.7,,,-1.5950457299590153,1.8401950847069808
0.0,0.0,0.0,0.0093,0.0686,0.0644,0.0144,0.0062,0.0127,0.0264,0.0343,0.0458,0.0538,0.0565,0.0423,0.0246,0.0135,0.0108,0.01,0.016,0.0253,0.0756,0.3447,1.5026,3.4473,4.5261,4.0361,3.2758,3.0475,3.4801,4.3184,4.8121,3.972,1.9346,0.4241,0.052,39.78390000000001,1.0063,11.12,0.075,0.9998,0.11,-5.0,2021.0,7.0,9.0,9.0,49.0,12.0,7/9/2021,9:49:12 AM,7/09/2021 9:49:12,6.554,138.24,39.784,47.0,2364.0,2718.0,3216.0,0.0,23231.0,5943.0,0.0,0.85,6.481,9:49:12 AM,51.27716678,2.61407717,0.4,DGPS      ,,,,,,,,,,,,,,,,2021-07-09 09:49:12,3.150999999999993,3.2902434392745885,,3.1802434392745886,-0.11,65.82878441225107,133.44890493740365,119.83443578682541,2.4316946690384165,255.14338999559527,189.3146055833442,3.8758636100245503,1.2819620909861968,2.8883451713992763,0.14229999999999998,28.1163,11.1948,0.3305,0.6412767265880787,10.519989839159074,138.476980800107,230.0,85.2,2.63,11.7,,,-1.6166918920046127,1.8395476472539833
0.0,0.0,0.0,0.0084,0.0622,0.0636,0.016,0.0073,0.0146,0.0296,0.0372,0.0477,0.0533,0.054,0.0389,0.022,0.0119,0.0096,0.0091,0.015,0.0247,0.0747,0.3419,1.4889,3.4305,4.5238,4.0405,3.2792,3.0418,3.4543,4.2879,4.8248,4.0381,1.9868,0.438,0.0545,39.830799999999996,1.0076,11.12,0.075,0.9998,0.11,-5.0,2021.0,7.0,9.0,9.0,49.0,13.0,7/9/2021,9:49:13 AM,7/09/2021 9:49:13,6.554,138.75,39.8306,47.0,2366.0,2719.0,3212.0,0.0,23231.0,5956.0,0.0,0.852,6.427,9:49:13 AM,51.27716692,2.61408,0.3,DGPS      ,,,,,,,,,,,,,,,,2021-07-09 09:49:13,3.0009999999999963,3.2903547351207023,,3.1803547351207024,-0.11,65.95355748078362,133.92009375438147,120.58122758287577,2.437573732525749,256.1198737012455,190.1663162204619,3.8833367521663895,1.2854458586326785,2.8925224539301095,0.13419999999999999,28.0219,11.3422,0.3325,0.6405029279297856,10.395438823217678,138.98295546520427,230.0,85.2,3.11,11.7,,,-1.5990974535706355,1.838868770887278
0.0,0.0,0.0,0.0095,0.0656,0.0625,0.0152,0.007,0.0138,0.0275,0.0341,0.044,0.0509,0.0543,0.0415,0.0247,0.014,0.0116,0.0111,0.0183,0.03,0.0869,0.3706,1.5089,3.3716,4.4563,4.0245,3.2743,3.02,3.4017,4.2139,4.7528,4.0003,1.966,0.4302,0.0532,39.4668,1.007,11.12,0.075,0.9986,0.1,-5.0,2021.0,7.0,9.0,9.0,49.0,14.0,7/9/2021,9:49:14 AM,7/09/2021 9:49:14,6.554,138.34,39.4667,47.0,2372.0,2708.0,3198.0,0.0,23229.0,5973.0,0.0,0.852,6.407,9:49:14 AM,51.2771677,2.61408133,0.3,DGPS      ,,,,,,,,,,,,,,,,2021-07-09 09:49:14,2.920999999999998,3.290397246579402,,3.1903972465794017,-0.1,65.69170736476664,133.27121622333522,120.51414867565246,2.4390377077544945,256.0367454361943,190.34503807142764,3.897550477939291,1.2863120625087956,2.8914834547735166,0.1376,27.7997,11.2025,0.327,0.6403106756401091,10.363600778178238,138.5798377110912,230.0,85.2,2.63,11.7,,,-1.5948407622535774,1.842039842927192
0.0,0.0,0.0,0.0101,0.0613,0.0633,0.0188,0.0096,0.0178,0.0326,0.0376,0.0447,0.0489,0.05,0.0378,0.0232,0.0137,0.0117,0.0113,0.0182,0.029,0.0829,0.3544,1.4703,3.3621,4.4811,4.0404,3.2744,3.0021,3.3684,4.1582,4.6997,4.0426,2.0986,0.5029,0.0707,39.548399999999994,1.0111,11.12,0.075,0.9986,0.1,-5.0,2021.0,7.0,9.0,9.0,49.0,15.0,7/9/2021,9:49:15 AM,7/09/2021 9:49:15,6.554,139.04,39.5481,47.0,2366.0,2712.0,3211.0,0.0,23229.0,5964.0,0.0,0.855,6.245,9:49:15 AM,51.27716807,2.614082,0.2,DGPS      ,,,,,,,,,,,,,,,,2021-07-09 09:49:15,3.0209999999999924,3.290359663137316,,3.190359663137316,-0.1,65.90854914296985,133.82627262346176,121.8077605231817,2.4511309189951946,258.55080774816804,192.6422586051982,3.9228720873117027,1.2934475430137855,2.8980505139457864,0.1347,27.6645,11.4145,0.3347,0.6387291634481568,10.332457754107862,139.29316833236817,230.0,85.2,3.11,11.7,,,-1.5940527349648332,1.8502058506202446
0.0,0.0,0.0,0.0086,0.0628,0.0655,0.017,0.0078,0.0152,0.0294,0.0337,0.0424,0.0491,0.0541,0.043,0.0266,0.0153,0.0127,0.0119,0.0192,0.0306,0.0872,0.3701,1.5076,3.3691,4.4561,4.0072,3.2288,2.9544,3.3274,4.1409,4.7119,4.0144,2.0104,0.451,0.0573,39.2387,1.0097,11.11,0.075,0.9992,0.11,-5.0,2021.0,7.0,9.0,9.0,49.0,16.0,7/9/2021,9:49:16 AM,7/09/2021 9:49:16,6.554,138.37,39.2385,47.0,2365.0,2719.0,3221.0,0.0,23231.0,5956.0,0.0,0.854,6.322,9:49:16 AM,51.27716745,2.61408333,0.4,DGPS      ,,,,,,,,,,,,,,,,2021-07-09 09:49:16,3.0809999999999946,3.2902547347221534,,3.1802547347221535,-0.11,65.59657490145095,133.19329432319367,121.50332126693465,2.4542030580502416,257.1035378351836,191.50696293373267,3.9194658901237336,1.2952546209333962,2.8997897614022974,0.1369,27.5232,11.245000000000001,0.3336,0.638329261885173,10.250282551955804,138.60977008234377,230.0,85.2,3.11,11.7,,,-1.5852660488341104,1.8488338822484933
0.0,0.0,0.0,0.0069,0.0591,0.0638,0.0157,0.0073,0.0154,0.0321,0.0384,0.047,0.0514,0.0529,0.0401,0.0245,0.0142,0.0122,0.0117,0.0191,0.0306,0.0861,0.3599,1.4729,3.3308,4.4603,4.0511,3.3118,3.0717,3.4577,4.2012,4.5781,3.719,1.7688,0.3711,0.0434,38.826299999999996,1.0097,11.11,0.075,0.9998,0.11,-5.0,2021.0,7.0,9.0,9.0,49.0,17.0,7/9/2021,9:49:17 AM,7/09/2021 9:49:17,6.554,136.68,38.826,47.0,2368.0,2714.0,3199.0,0.0,23231.0,5969.0,0.0,0.853,6.346,9:49:17 AM,51.27716735,2.61408567,0.5,DGPS      ,,,,,,,,,,,,,,,,2021-07-09 09:49:17,2.967999999999999,3.290090494134981,,3.1800904941349812,-0.11,65.67258114850202,130.87530183623034,117.02653078601786,2.401663369726328,252.43583273306845,186.76325158456643,3.8438542892390406,1.2640339491863997,2.9181940136888573,0.1298,27.8771,10.4804,0.33899999999999997,0.6452736529614893,10.490753314490936,136.90371889515347,230.0,85.2,3.11,11.7,,,-1.6135221760683853,1.8339917572757352
0.0,0.0,0.0,0.0084,0.0631,0.0641,0.016,0.0074,0.0145,0.0289,0.0357,0.0456,0.0526,0.0573,0.0447,0.0268,0.0148,0.012,0.011,0.0178,0.0285,0.0831,0.3626,1.5087,3.3996,4.484,4.0209,3.2537,2.9955,3.3912,4.2304,4.8056,4.0853,2.0355,0.4515,0.0562,39.712999999999994,1.007,11.12,0.075,0.9998,0.1,-5.0,2021.0,7.0,9.0,9.0,49.0,18.0,7/9/2021,9:49:18 AM,7/09/2021 9:49:18,6.554,138.76,39.7129,47.0,2368.0,2711.0,3207.0,0.0,23230.0,5974.0,0.0,0.851,6.454,9:49:18 AM,51.27716875,2.6140885,0.5,DGPS      ,,,,,,,,,,,,,,,,2021-07-09 09:49:18,2.7879999999999923,3.2898471763749706,,3.1898471763749705,-0.1,65.72692256460192,134.04767666712343,121.58406773708464,2.451431307954585,257.12389574034785,191.39697317574593,3.912002657474568,1.2936243361446138,2.8967069147473037,0.1356,27.799,11.4341,0.3443,0.6386900285423276,10.23397882230424,139.0070983108371,230.0,85.2,3.11,11.7,,,-1.5889799315108872,1.8469428356918527
0.0,0.0,0.0,0.0072,0.0619,0.0673,0.0167,0.0075,0.0152,0.0306,0.0364,0.0447,0.0505,0.0529,0.0398,0.0233,0.0128,0.0104,0.0098,0.0162,0.0264,0.0789,0.352,1.4959,3.4044,4.5048,4.039,3.2792,3.031,3.42,4.2201,4.7332,3.9594,1.9301,0.4136,0.0485,39.4397,1.0063,11.1,0.075,0.9992,0.11,-5.0,2021.0,7.0,9.0,9.0,49.0,19.0,7/9/2021,9:49:19 AM,7/09/2021 9:49:19,6.554,138.01,39.4397,47.0,2367.0,2716.0,3219.0,0.0,23231.0,5970.0,0.0,0.851,6.458,9:49:19 AM,51.27716955,2.6140895,0.2,DGPS      ,,,,,,,,,,,,,,,,2021-07-09 09:49:19,2.8479999999999945,3.289501382551119,,3.179501382551119,-0.11,65.78374352403846,132.72698628075477,119.87967956094973,2.4334323499873283,255.26432258838642,189.48057906434798,3.880355676248626,1.2829926678999928,2.9054003179227506,0.1364,27.8881,11.0848,0.3304,0.6410477222036771,10.446560025566994,138.24293849476936,230.0,85.2,3.11,11.7,,,-1.6067267170918558,1.8399906917901867
0.0,0.0,0.0,0.0084,0.0649,0.0637,0.0151,0.0068,0.0137,0.028,0.0355,0.0459,0.0531,0.0558,0.0415,0.0236,0.0127,0.0103,0.0096,0.0157,0.0254,0.0762,0.347,1.5018,3.4247,4.4956,4.0413,3.3217,3.1037,3.5219,4.3217,4.7441,3.848,1.8266,0.3861,0.0457,39.535799999999995,1.007,11.12,0.075,0.9992,0.1,-5.0,2021.0,7.0,9.0,9.0,49.0,20.0,7/9/2021,9:49:20 AM,7/09/2021 9:49:20,6.554,137.5,39.5361,47.0,2368.0,2717.0,3204.0,0.0,23230.0,5977.0,0.0,0.851,6.431,9:49:20 AM,51.27716952,2.6140905,0.4,DGPS      ,,,,,,,,,,,,,,,,2021-07-09 09:49:20,3.0279999999999943,3.289062769134131,,3.189062769134131,-0.1,65.79149049473858,132.34538686757327,117.99686931659095,2.410213015593823,253.14624050740088,187.3547500126623,3.8477049023178043,1.2691606580569217,2.9018368215786916,0.137,28.2166,10.8505,0.3317,0.6441281603612481,10.595012695903232,137.72948869667727,230.0,85.2,2.63,11.7,,,-1.6237969874011706,1.8328541961195246
0.0,0.0,0.0,0.0075,0.0617,0.0662,0.0165,0.0075,0.0151,0.0307,0.038,0.0471,0.052,0.0521,0.0374,0.0212,0.0115,0.0095,0.0092,0.0155,0.0259,0.0784,0.356,1.527,3.4541,4.5348,4.0909,3.3521,3.1015,3.4853,4.2631,4.6962,3.8274,1.8312,0.3906,0.0467,39.5599,1.0063,11.11,0.075,0.9992,0.1,-5.0,2021.0,7.0,9.0,9.0,49.0,21.0,7/9/2021,9:49:21 AM,7/09/2021 9:49:21,6.554,137.02,39.5599,47.0,2369.0,2711.0,3204.0,0.0,23230.0,5989.0,0.0,0.851,6.458,9:49:21 AM,51.27716953,2.61409267,0.3,DGPS      ,,,,,,,,,,,,,,,,2021-07-09 09:49:21,3.0449999999999937,3.2885601420559016,,3.1885601420559015,-0.1,65.66015298645695,131.19635720678858,117.88295589270983,2.413467456187686,253.1305403316296,187.47038734517264,3.855162207493489,1.2711073732448384,2.9070228447350486,0.1354,28.3033,10.7921,0.3291,0.6436937264960991,10.544208497803936,137.2462888029511,230.0,85.2,3.11,11.7,,,-1.6099630699913308,1.8337743135622788
0.0,0.0,0.0,0.0066,0.0575,0.0695,0.0185,0.008,0.0154,0.03,0.0355,0.0451,0.0523,0.0561,0.0419,0.0238,0.0123,0.0095,0.0084,0.0136,0.0215,0.0669,0.3221,1.4726,3.464,4.5998,4.1376,3.376,3.1313,3.5183,4.2663,4.6515,3.7812,1.8421,0.4077,0.0504,39.6133,1.0083,11.1,0.075,0.9992,0.12,-5.0,2021.0,7.0,9.0,9.0,49.0,22.0,7/9/2021,9:49:22 AM,7/09/2021 9:49:22,6.554,137.07,39.6132,47.0,2366.0,2712.0,3216.0,0.0,23232.0,5983.0,0.0,0.853,6.376,9:49:22 AM,51.2771703,2.61409383,0.3,DGPS      ,,,,,,,,,,,,,,,,2021-07-09 09:49:22,2.834999999999993,3.2879952743421623,,3.167995274342162,-0.12,65.9742987564109,130.93927965258965,117.28915753551303,2.4040344530773297,253.1992839269016,187.2249851704907,3.8378472935613814,1.2654575719757344,2.909888786786457,0.1336,28.407899999999998,10.7329,0.3389,0.6449553598820745,10.58693712559309,137.29543121045972,230.0,85.2,3.11,11.7,,,-1.6106981998865537,1.831092448224751
0.0,0.0,0.0,0.0057,0.0578,0.0708,0.0179,0.0079,0.0162,0.0324,0.0382,0.0457,0.0503,0.052,0.0387,0.0222,0.0115,0.0089,0.0077,0.0121,0.0188,0.0584,0.2929,1.4285,3.4986,4.6682,4.156,3.3735,3.1393,3.5431,4.2947,4.6481,3.7078,1.7386,0.3623,0.0415,39.46629999999999,1.0083,11.11,0.075,0.9998,0.1,-5.0,2021.0,7.0,9.0,9.0,49.0,23.0,7/9/2021,9:49:23 AM,7/09/2021 9:49:23,6.554,136.54,39.4665,47.0,2365.0,2717.0,3209.0,0.0,23229.0,5981.0,0.0,0.852,6.4,9:49:23 AM,51.27717153,2.61409383,0.3,DGPS      ,,,,,,,,,,,,,,,,2021-07-09 09:49:23,2.7849999999999957,3.287342035430733,,3.1873420354307327,-0.1,66.16807228740993,130.23210937840437,116.00302591137483,2.390565889805116,251.15531689905626,184.98724461164633,3.7957176054355846,1.2573521704147632,2.9229524408971805,0.1343,28.5007,10.4983,0.33299999999999996,0.6467696627723674,10.82466504436566,136.75887105515338,85.2,230.0,3.11,11.7,,,-1.6391553179053575,1.8245687664343848
0.0,0.0,0.0,0.0059,0.0588,0.0716,0.0175,0.0072,0.0144,0.0292,0.035,0.0446,0.0513,0.0551,0.0413,0.023,0.0112,0.0081,0.0068,0.0106,0.0166,0.0537,0.2842,1.442,3.5677,4.7059,4.1076,3.299,3.0779,3.4982,4.2651,4.6867,3.8734,1.9085,0.4172,0.0492,39.74450000000001,1.0097,11.11,0.075,0.9986,0.11,-5.0,2021.0,7.0,9.0,9.0,49.0,24.0,7/9/2021,9:49:24 AM,7/09/2021 9:49:24,6.554,137.59,39.7444,47.0,2369.0,2717.0,3203.0,0.0,23231.0,5988.0,0.0,0.854,6.299,9:49:24 AM,51.27717233,2.614095,0.2,DGPS      ,,,,,,,,,,,,,,,,2021-07-09 09:49:24,2.9549999999999974,3.2865939853333033,,3.1765939853333034,-0.11,66.17325688398613,131.5853442480574,118.63754607686575,2.423445511033705,254.34559792849103,188.1723410445049,3.843631247807639,1.2770596451842398,2.9009031069499134,0.13629999999999998,28.3434,10.935,0.3298,0.6423672192391915,10.572800888026153,137.82319596537855,85.2,230.0,3.11,11.7,,,-1.5997705092705359,1.8307763370695158
0.0,0.0,0.0,0.0058,0.0592,0.0711,0.0169,0.0067,0.0137,0.0284,0.0356,0.0473,0.0557,0.0587,0.0426,0.0231,0.0111,0.0081,0.0067,0.0105,0.0162,0.0523,0.2762,1.4204,3.5787,4.7668,4.1587,3.3254,3.0918,3.4939,4.2426,4.689,3.9361,1.9737,0.4364,0.0514,40.01080000000001,1.007,11.11,0.075,0.9992,0.1,-5.0,2021.0,7.0,9.0,9.0,49.0,25.0,7/9/2021,9:49:25 AM,7/09/2021 9:49:25,6.554,137.8,40.0109,47.0,2368.0,2713.0,3211.0,0.0,23230.0,5997.0,0.0,0.851,6.431,9:49:25 AM,51.27717233,2.61409733,0.4,DGPS      ,,,,,,,,,,,,,,,,2021-07-09 09:49:25,3.0589999999999993,3.285777425980562,,3.185777425980562,-0.1,66.30551927241666,131.56426126151416,119.1684081704286,2.428595263869737,255.29831782224437,188.9927985498277,3.8503328323747765,1.2801220785036445,2.895533990439146,0.1361,28.4483,11.0866,0.3398,0.6416857990037367,10.494385282775568,138.03717718205738,85.2,230.0,3.11,11.7,,,-1.590380487484774,1.8328160879508184
0.0,0.0,0.0,0.0045,0.0559,0.0714,0.0164,0.0066,0.0142,0.0305,0.0382,0.0486,0.0559,0.0597,0.045,0.0251,0.0122,0.0087,0.007,0.0104,0.0153,0.0482,0.2562,1.3631,3.5402,4.7963,4.2018,3.3502,3.1147,3.5322,4.2994,4.6923,3.7872,1.7921,0.3682,0.0401,39.707800000000006,1.0056,11.11,0.075,0.9992,0.11,-5.0,2021.0,7.0,9.0,9.0,49.0,26.0,7/9/2021,9:49:26 AM,7/09/2021 9:49:26,6.554,136.91,39.7078,47.0,2364.0,2712.0,3210.0,0.0,23231.0,6006.0,0.0,0.85,6.485,9:49:26 AM,51.27717252,2.61409917,0.4,DGPS      ,,,,,,,,,,,,,,,,2021-07-09 09:49:26,2.949,3.2849104114025813,,3.1749104114025815,-0.11,66.49638131563157,130.52941801383815,116.78855540698761,2.3995716979102824,251.98056528094085,185.48418396530928,3.789387637274433,1.2627769206491273,2.918121348690815,0.1318,28.5437,10.6799,0.3524,0.6455548295385855,10.67996985424543,137.12722378494868,85.2,230.0,3.11,11.7,,,-1.622919282977851,1.8243404759846824
0.0,0.0,0.0,0.0062,0.0583,0.0694,0.0175,0.0075,0.0153,0.0313,0.0387,0.049,0.0547,0.0553,0.0398,0.0223,0.0114,0.0086,0.0074,0.0114,0.0175,0.0548,0.2786,1.4009,3.5494,4.7731,4.16,3.2989,3.061,3.4869,4.2897,4.7893,4.0239,2.0223,0.4541,0.0558,40.220299999999995,1.0076,11.12,0.075,0.9992,0.1,-5.0,2021.0,7.0,9.0,9.0,49.0,27.0,7/9/2021,9:49:27 AM,7/09/2021 9:49:27,6.554,138.52,40.2204,47.0,2370.0,2716.0,3209.0,0.0,23230.0,6000.0,0.0,0.852,6.403,9:49:27 AM,51.27717407,2.61410017,0.4,DGPS      ,,,,,,,,,,,,,,,,2021-07-09 09:49:27,2.8089999999999993,3.2839786440662273,,3.183978644066227,-0.1,66.44632768722806,132.84435357408756,120.20109410602551,2.4366541764320075,256.21438498287614,189.76805729564808,3.8559600492733357,1.2849015102530874,2.898491957852877,0.1339,28.398200000000003,11.3454,0.3428,0.640623774543711,10.467508923938922,138.75759874908343,230.0,85.2,3.11,11.7,,,-1.5960750140780076,1.835487492109942
0.0,0.0,0.0,0.0054,0.0586,0.0724,0.017,0.0068,0.0141,0.0298,0.0362,0.047,0.0542,0.0574,0.0422,0.0232,0.0113,0.0083,0.007,0.0109,0.0169,0.0532,0.2749,1.4013,3.5429,4.7422,4.144,3.3273,3.1246,3.556,4.3094,4.7041,3.8545,1.8782,0.4017,0.0459,39.8789,1.0076,11.1,0.075,0.9992,0.1,-5.0,2021.0,7.0,9.0,9.0,49.0,28.0,7/9/2021,9:49:28 AM,7/09/2021 9:49:28,6.554,137.52,39.8788,47.0,2371.0,2715.0,3209.0,0.0,23229.0,5998.0,0.0,0.852,6.403,9:49:28 AM,51.27717587,2.61410167,0.4,DGPS      ,,,,,,,,,,,,,,,,2021-07-09 09:49:28,2.8989999999999956,3.282965472077307,,3.182965472077307,-0.1,66.37473788972802,131.5997996047851,117.82043307573903,2.41034241069259,253.55126691325447,187.17652902352643,3.819996507323208,1.2692381087450038,2.905903148243962,0.13640000000000002,28.518900000000002,10.884400000000001,0.3392,0.6441108706713736,10.672120468787448,137.74301448133255,85.2,230.0,3.11,11.7,,,-1.620048108494219,1.828468737150989
0.0,0.0,0.0,0.0059,0.0567,0.0723,0.0189,0.0077,0.0149,0.0293,0.035,0.0448,0.052,0.0554,0.041,0.0229,0.0112,0.0082,0.0069,0.0108,0.0166,0.0531,0.2775,1.4124,3.5547,4.7571,4.1654,3.3212,3.0783,3.4814,4.253,4.6972,3.8699,1.8893,0.4112,0.0494,39.7816,1.0097,11.11,0.075,0.9992,0.1,-5.0,2021.0,7.0,9.0,9.0,49.0,29.0,7/9/2021,9:49:29 AM,7/09/2021 9:49:29,6.554,137.46,39.7814,47.0,2364.0,2715.0,3210.0,0.0,23230.0,5992.0,0.0,0.854,6.322,9:49:29 AM,51.27717655,2.6141035,0.3,DGPS      ,,,,,,,,,,,,,,,,2021-07-09 09:49:29,3.0999999999999948,3.28188763358273,,3.18188763358273,-0.1,66.31018749901912,131.13250060137912,118.39194454248586,2.419881808666268,254.00613630631022,187.6959488072911,3.830574846588506,1.2749365854275192,2.906133421075332,0.13490000000000002,28.3966,10.917,0.3331,0.6428400446840435,10.606187537202064,137.68899622847812,85.2,230.0,3.11,11.7,,,-1.6029282961096052,1.8294966398121077
0.0,0.0,0.0,0.0048,0.0537,0.0703,0.0176,0.0073,0.0152,0.0318,0.0385,0.0478,0.0536,0.0558,0.0407,0.0223,0.0108,0.0079,0.0066,0.0103,0.016,0.0517,0.2739,1.4096,3.5596,4.7739,4.1674,3.3072,3.0704,3.506,4.2975,4.699,3.7985,1.799,0.3736,0.0418,39.640100000000004,1.0076,11.11,0.075,0.9992,0.1,-5.0,2021.0,7.0,9.0,9.0,49.0,30.0,7/9/2021,9:49:30 AM,7/09/2021 9:49:30,6.554,136.94,39.64,47.0,2365.0,2715.0,3210.0,0.0,23229.0,6014.0,0.0,0.852,6.403,9:49:30 AM,51.27717682,2.614105,0.2,DGPS      ,,,,,,,,,,,,,,,,2021-07-09 09:49:30,3.0899999999999967,3.280776217270136,,3.180776217270136,-0.1,66.28178098140906,130.65838498624592,117.32730131862719,2.409437554503509,252.2769452070043,185.99516422559526,3.8061280410941856,1.2686964111731363,2.9156673892505136,0.1288,28.458,10.7119,0.34140000000000004,0.6442318061563412,10.57813403448019,137.15815563332944,85.2,230.0,3.11,11.7,,,-1.6032430570524077,1.8247271114097696
0.0,0.0,0.0,0.0106,0.0684,0.0694,0.0185,0.008,0.0144,0.0265,0.0318,0.0422,0.0508,0.0562,0.0439,0.0254,0.0129,0.0094,0.0079,0.0122,0.0184,0.0574,0.2911,1.4437,3.618,4.8071,4.1606,3.2652,2.9879,3.3759,4.1739,4.7676,4.1872,2.251,0.5569,0.0779,40.54829999999999,1.0063,11.1,0.075,0.9992,0.1,-5.0,2021.0,7.0,9.0,9.0,49.0,31.0,7/9/2021,9:49:31 AM,7/09/2021 9:49:31,6.554,139.31,40.5482,47.0,2369.0,2713.0,3206.0,0.0,23229.0,5963.0,0.0,0.851,6.458,9:49:31 AM,51.2771784,2.61410617,0.5,DGPS      ,,,,,,,,,,,,,,,,2021-07-09 09:49:31,2.959999999999994,3.2796353433552787,,3.1796353433552786,-0.1,66.25071028503754,133.42949024185256,123.41113021816719,2.4790941937069255,260.2442196302922,193.99350934525467,3.9281725208773697,1.309813087968481,2.87700955624167,0.1484,28.2287,11.8406,0.3306,0.6351166320135179,10.378366813346059,139.57256950282877,85.2,230.0,3.11,11.7,,,-1.5757671994370963,1.8512417431625199
0.0,0.0,0.0,0.008,0.0644,0.0712,0.0178,0.0074,0.0143,0.0284,0.0353,0.0466,0.0531,0.0537,0.0376,0.0203,0.0101,0.0076,0.0068,0.011,0.0176,0.0569,0.294,1.4611,3.6027,4.73,4.0994,3.2743,3.064,3.5123,4.3464,4.853,4.0542,2.0211,0.4558,0.0574,40.3938,1.0056,11.12,0.075,0.9986,0.1,-5.0,2021.0,7.0,9.0,9.0,49.0,32.0,7/9/2021,9:49:32 AM,7/09/2021 9:49:32,6.554,138.64,40.394,47.0,2369.0,2714.0,3210.0,0.0,23229.0,5950.0,0.0,0.851,6.461,9:49:32 AM,51.27718048,2.61410767,0.3,DGPS      ,,,,,,,,,,,,,,,,2021-07-09 09:49:32,2.939999999999998,3.278448245616293,,3.178448245616293,-0.1,66.21360761600964,133.49715621414157,120.56156451555799,2.4429233928638343,256.17072062414866,189.957113008139,3.8688530930039478,1.288608623135123,2.88898592738029,0.1436,28.4841,11.4415,0.3246,0.6398012376821715,10.61187995142171,138.87731933512725,230.0,85.2,3.11,11.7,,,-1.6136593711939897,1.837543908612904
0.0,0.0,0.0,0.0029,0.0474,0.0684,0.015,0.0059,0.0142,0.0336,0.0413,0.0508,0.0559,0.0565,0.0393,0.0209,0.0101,0.0077,0.0067,0.0107,0.017,0.0547,0.2893,1.463,3.5344,4.6273,4.038,3.2393,3.0352,3.504,4.3481,4.779,3.7799,1.6717,0.3065,0.0286,39.2033,1.0063,11.1,0.075,0.9992,0.1,-5.0,2021.0,7.0,9.0,9.0,49.0,33.0,7/9/2021,9:49:33 AM,7/09/2021 9:49:33,6.554,136.8,39.2033,47.0,2361.0,2718.0,3211.0,0.0,23230.0,5884.0,0.0,0.851,6.458,9:49:33 AM,51.27718155,2.61410917,0.2,DGPS      ,,,,,,,,,,,,,,,,2021-07-09 09:49:33,3.047999999999992,3.277212446865195,,3.177212446865195,-0.1,65.9829582591981,131.40097257370903,117.04534595152317,2.407211272273198,250.3115547851213,184.32859652592322,3.7935788480691164,1.26736276752274,2.9230321810274313,0.1187,28.1754,10.5657,0.34349999999999997,0.6445296425742367,10.381298653142828,137.00950740046952,230.0,85.2,3.11,11.7,,,-1.5912789975112367,1.8185069576828854
0.0,0.0,0.0,0.0052,0.0549,0.0696,0.0174,0.0073,0.015,0.0312,0.037,0.0464,0.0518,0.0529,0.0379,0.021,0.0107,0.0082,0.0072,0.0112,0.0174,0.0546,0.2791,1.4018,3.5041,4.7142,4.1646,3.3341,3.0736,3.4551,4.2016,4.6472,3.8814,1.9244,0.4199,0.0492,39.60719999999999,1.0097,11.1,0.075,0.9992,0.1,-5.0,2021.0,7.0,9.0,9.0,49.0,34.0,7/9/2021,9:49:34 AM,7/09/2021 9:49:34,6.554,137.74,39.6074,47.0,2365.0,2715.0,3207.0,0.0,23229.0,6024.0,0.0,0.854,6.322,9:49:34 AM,51.27718248,2.6141105,0.4,DGPS      ,,,,,,,,,,,,,,,,2021-07-09 09:49:34,3.0979999999999963,3.275944326123869,,3.175944326123869,-0.1,66.38157403750769,131.22064172118814,118.63965956749817,2.419857132716139,254.74612305740487,188.3645490198972,3.8376029304979307,1.2749218739435686,2.900264000770865,0.12969999999999998,28.226799999999997,10.9221,0.3286,0.6428433222842437,10.49609950447233,137.97547098005512,85.2,230.0,3.11,11.7,,,-1.5830514070349597,1.8277697587695965
0.0,0.0,0.0,0.0072,0.0599,0.0676,0.0174,0.0076,0.0148,0.0293,0.0346,0.0443,0.0512,0.0545,0.0411,0.0238,0.0126,0.0098,0.0088,0.0139,0.0218,0.0662,0.3146,1.4434,3.4368,4.6087,4.1479,3.3578,3.0881,3.4694,4.2363,4.6676,3.8329,1.8628,0.405,0.0496,39.5073,1.0104,11.12,0.075,0.9992,0.1,-5.0,2021.0,7.0,9.0,9.0,49.0,35.0,7/9/2021,9:49:35 AM,7/09/2021 9:49:35,6.554,137.41,39.5074,47.0,2373.0,2712.0,3208.0,0.0,23229.0,6032.0,0.0,0.854,6.295,9:49:35 AM,51.27718428,2.61411217,0.4,DGPS      ,,,,,,,,,,,,,,,,2021-07-09 09:49:35,3.017999999999998,3.2746527117336877,,3.1746527117336876,-0.1,66.11552643231663,131.22428880275694,117.95541277950497,2.410207413112024,253.77183733410558,187.65631090178897,3.8383092599874447,1.2691573045433322,2.9053646774393282,0.1347,28.2235,10.8179,0.3312,0.6441289089927098,10.601264028240932,137.63495689103058,230.0,85.2,3.11,11.7,,,-1.609184459814293,1.8308643161867442
0.0,0.0,0.0,0.0081,0.0603,0.0673,0.0184,0.0083,0.0157,0.0301,0.036,0.0456,0.0518,0.0548,0.0409,0.0233,0.0121,0.0093,0.0083,0.0134,0.0215,0.0657,0.3128,1.4387,3.4611,4.6566,4.185,3.3925,3.1189,3.486,4.2265,4.6348,3.8193,1.8923,0.4262,0.0548,39.6964,1.0097,11.1,0.075,0.9992,0.1,-5.0,2021.0,7.0,9.0,9.0,49.0,36.0,7/9/2021,9:49:36 AM,7/09/2021 9:49:36,6.554,137.26,39.6964,47.0,2371.0,2714.0,3211.0,0.0,23230.0,6029.0,0.0,0.854,6.322,9:49:36 AM,51.27718602,2.61411417,0.3,DGPS      ,,,,,,,,,,,,,,,,2021-07-09 09:49:36,3.037999999999994,3.273332944467916,,3.1733329444679157,-0.1,66.14569500110854,130.77389305888505,117.78408170158258,2.40904013193549,254.12733315792326,187.9816381568147,3.8419330714366873,1.2684584274751178,2.9062975341198367,0.1357,28.3963,10.8274,0.337,0.6442849438556231,10.6353237276183,137.48903019952908,85.2,230.0,3.11,11.7,,,-1.6124596285529986,1.8332185108505203
0.0,0.0,0.0,0.0078,0.061,0.0678,0.0178,0.0078,0.0152,0.0296,0.0362,0.0462,0.0524,0.0539,0.0394,0.0222,0.0115,0.0088,0.0078,0.0125,0.0199,0.0627,0.3112,1.4732,3.5415,4.6723,4.1208,3.321,3.0831,3.4936,4.2844,4.7549,3.9428,1.9546,0.4411,0.0567,40.031699999999994,1.0056,11.1,0.075,0.9986,0.1,-5.0,2021.0,7.0,9.0,9.0,49.0,37.0,7/9/2021,9:49:37 AM,7/09/2021 9:49:37,6.554,137.95,40.0316,47.0,2362.0,2715.0,3213.0,0.0,23229.0,6028.0,0.0,0.851,6.461,9:49:37 AM,51.2771873,2.61411567,0.3,DGPS      ,,,,,,,,,,,,,,,,2021-07-09 09:49:37,3.0469999999999944,3.271984073695204,,3.171984073695204,-0.1,66.06310111000572,132.19842857255563,119.39373353972351,2.4299657659197935,255.20323514696238,189.14013403695668,3.8630223356001383,1.280935988857539,2.896879018622848,0.1366,28.412799999999997,11.1501,0.3322,0.6415048179071434,10.515663217630777,138.17974017782586,230.0,85.2,3.11,11.7,,,-1.5984464140472154,1.8352993866168987
0.0,0.0,0.0,0.0061,0.0558,0.0693,0.0188,0.0082,0.0159,0.0309,0.0368,0.0461,0.0522,0.0556,0.0414,0.0233,0.0118,0.0089,0.0077,0.0122,0.0191,0.0592,0.2937,1.4173,3.4838,4.6873,4.176,3.3786,3.1265,3.5033,4.2205,4.5968,3.7662,1.8552,0.4149,0.0518,39.551199999999994,1.0104,11.1,0.075,0.9986,0.09,-5.0,2021.0,7.0,9.0,9.0,49.0,38.0,7/9/2021,9:49:38 AM,7/09/2021 9:49:38,6.554,137.02,39.5515,47.0,2365.0,2716.0,3207.0,0.0,23228.0,6036.0,0.0,0.855,6.272,9:49:38 AM,51.27718875,2.6141165,0.3,DGPS      ,,,,,,,,,,,,,,,,2021-07-09 09:49:38,3.0069999999999952,3.270606945950249,,3.1806069459502493,-0.09,66.23019450961928,130.3977569607405,117.17141319877244,2.4033984778605055,253.44506872321108,187.2148742135918,3.8267299469640044,1.2650758637709716,2.910930736169628,0.1312,28.3941,10.6849,0.341,0.6450406866594603,10.604098245101921,137.24736544082987,85.2,230.0,3.11,11.7,,,-1.605186496292907,1.8293079439395854
0.0,0.0,0.0,0.0069,0.0578,0.0662,0.0176,0.008,0.0157,0.0309,0.0374,0.0472,0.0536,0.0564,0.0425,0.0244,0.0127,0.0097,0.0083,0.0129,0.0196,0.0599,0.2944,1.4184,3.5012,4.7142,4.1749,3.3346,3.0516,3.4125,4.1585,4.6318,3.92,1.9937,0.4558,0.0573,39.706599999999995,1.0104,11.1,0.075,0.9986,0.1,-5.0,2021.0,7.0,9.0,9.0,49.0,39.0,7/9/2021,9:49:39 AM,7/09/2021 9:49:39,6.554,137.76,39.7067,47.0,2370.0,2717.0,3207.0,0.0,23229.0,6048.0,0.0,0.855,6.272,9:49:39 AM,51.27719063,2.61411783,0.5,DGPS      ,,,,,,,,,,,,,,,,2021-07-09 09:49:39,3.0469999999999944,3.269200626886027,,3.169200626886027,-0.1,66.22089301707716,131.16707398346585,119.57282078176597,2.432782598179335,256.0744108009315,189.85351778385433,3.8669730825722115,1.2826074018454694,2.9026680969040144,0.13090000000000002,28.1707,11.0586,0.3464,0.6411333225588398,10.371193217212312,137.99942282479793,85.2,230.0,3.11,11.7,,,-1.577246846562772,1.8373550809617747
0.0,0.0,0.0,0.007,0.0609,0.0682,0.0171,0.0075,0.0149,0.0296,0.0357,0.045,0.0515,0.0549,0.0416,0.0241,0.0128,0.0099,0.0087,0.0135,0.0207,0.0617,0.2948,1.3994,3.4488,4.6906,4.2099,3.3842,3.0858,3.4255,4.1762,4.6705,3.9455,1.9869,0.4472,0.0552,39.805800000000005,1.0076,11.1,0.075,0.9992,0.09,-5.0,2021.0,7.0,9.0,9.0,49.0,40.0,7/9/2021,9:49:40 AM,7/09/2021 9:49:40,6.554,138.03,39.8059,47.0,2370.0,2714.0,3214.0,0.0,23228.0,6059.0,0.0,0.852,6.403,9:49:40 AM,51.27719247,2.61411967,0.4,DGPS      ,,,,,,,,,,,,,,,,2021-07-09 09:49:40,3.176999999999997,3.2677764720479767,,3.177776472047977,-0.09,66.39859821672493,131.45417420581043,119.3112990477757,2.4236641188230466,255.8753993586359,189.47680114191095,3.8536265257206024,1.2771897781491943,2.898540880709971,0.1361,28.2297,11.1053,0.3347,0.6423382487140854,10.537532280212604,138.27205398809346,85.2,230.0,3.11,11.7,,,-1.5968447959671028,1.8345501901458319
0.0,0.0,0.0,0.0079,0.0618,0.0654,0.0166,0.0076,0.0149,0.0297,0.0367,0.0474,0.0544,0.0567,0.0413,0.023,0.0119,0.0092,0.0083,0.0138,0.0225,0.0704,0.3384,1.5226,3.5138,4.5642,4.0341,3.2636,3.0266,3.4406,4.2941,4.8915,4.1357,2.0446,0.4483,0.0545,40.1721,1.0042,11.11,0.075,0.9992,0.1,-5.0,2021.0,7.0,9.0,9.0,49.0,41.0,7/9/2021,9:49:41 AM,7/09/2021 9:49:41,6.554,138.93,40.1719,47.0,2364.0,2710.0,3202.0,0.0,23229.0,6065.0,0.0,0.849,6.539,9:49:41 AM,51.27719358,2.61412183,0.3,DGPS      ,,,,,,,,,,,,,,,,2021-07-09 09:49:41,2.980999999999997,3.2663415654505483,,3.1663415654505482,-0.1,65.84980514166944,134.28083403588562,121.66180468936162,2.4538518538584486,256.8673085479371,191.01750340626768,3.9008059020875177,1.2950481519529964,2.894628487082648,0.1351,28.1222,11.5746,0.3402,0.6383749402522749,10.290863169488171,139.16830351791765,230.0,85.2,3.11,11.7,,,-1.5888677120906094,1.8425080188010934
0.0,0.0,0.0,0.0085,0.0649,0.0648,0.0155,0.007,0.014,0.0284,0.0346,0.0441,0.0508,0.0542,0.0413,0.0243,0.0134,0.0109,0.0101,0.0163,0.026,0.0761,0.3409,1.4791,3.4318,4.5719,4.1037,3.3095,3.0232,3.3896,4.1882,4.738,4.0142,1.9874,0.4328,0.0522,39.6677,1.0022,11.09,0.075,0.9986,0.1,-5.0,2021.0,7.0,9.0,9.0,49.0,42.0,7/9/2021,9:49:42 AM,7/09/2021 9:49:42,6.554,138.19,39.668,47.0,2367.0,2716.0,3201.0,0.0,23230.0,6061.0,0.0,0.848,6.597,9:49:42 AM,51.27719547,2.61412283,0.6,DGPS      ,,,,,,,,,,,,,,,,2021-07-09 09:49:42,2.7909999999999924,3.2648689186643036,,3.1648689186643035,-0.1,65.91704138042834,132.4485811401762,120.45506888596445,2.4402481647004244,256.1254474430888,190.20840606266043,3.885572563321021,1.2870278722869375,2.8934765885185354,0.1382,27.9773,11.2246,0.3276,0.6401518465800389,10.403631248941329,138.42876251875714,230.0,85.2,2.63,11.7,,,-1.5900859120255288,1.8398435800892388
0.0,0.0,0.0,0.0106,0.0636,0.0634,0.018,0.0089,0.0165,0.0308,0.0365,0.0447,0.0498,0.0515,0.039,0.0239,0.0141,0.0121,0.0118,0.0193,0.0311,0.0881,0.3663,1.4737,3.3117,4.4254,4.049,3.3113,3.0332,3.3924,4.2079,4.8007,4.1431,2.1513,0.5148,0.0718,39.886300000000006,1.0076,11.1,0.075,0.9986,0.09,-5.0,2021.0,7.0,9.0,9.0,49.0,43.0,7/9/2021,9:49:43 AM,7/09/2021 9:49:43,6.554,139.8,39.8862,47.0,2365.0,2719.0,3217.0,0.0,23228.0,6053.0,0.0,0.853,6.38,9:49:43 AM,51.2771982,2.6141235,0.6,DGPS      ,,,,,,,,,,,,,,,,2021-07-09 09:49:43,2.740999999999995,3.2633215303163094,,3.1733215303163096,-0.09,66.0069506296305,135.12739357539095,122.3700398468162,2.4491800719016235,259.234064504017,193.2271138743865,3.9273752541394775,1.2922988495609231,2.889888656667107,0.1376,27.7333,11.6817,0.3337,0.6389834965029852,10.34916644114929,140.0579238946075,230.0,85.2,2.63,11.7,,,-1.6029733275888944,1.850507150545307
0.0,0.0,0.0,0.0093,0.0618,0.063,0.017,0.0083,0.016,0.0309,0.0362,0.0443,0.05,0.0536,0.0426,0.0273,0.0165,0.0141,0.0133,0.021,0.0327,0.0896,0.363,1.4475,3.2729,4.4417,4.0941,3.3413,3.0422,3.3752,4.1472,4.6933,4.0054,2.0196,0.4599,0.0603,39.41109999999999,1.0097,11.1,0.075,0.9986,0.1,-5.0,2021.0,7.0,9.0,9.0,49.0,44.0,7/9/2021,9:49:44 AM,7/09/2021 9:49:44,6.554,138.61,39.4113,47.0,2367.0,2713.0,3221.0,0.0,23230.0,6070.0,0.0,0.854,6.299,9:49:44 AM,51.27720033,2.6141255,0.4,DGPS      ,,,,,,,,,,,,,,,,2021-07-09 09:49:44,2.890999999999994,3.2616928791766466,,3.1616928791766465,-0.1,65.96006039379863,133.11025763096936,120.54955171110046,2.4318691868768507,257.11134584893176,191.15128545513312,3.8979853007094065,1.2820656265940857,2.902901709734415,0.1341,27.6958,11.2385,0.3427,0.6412537162558086,10.351488240491385,138.85327539057417,230.0,85.2,3.11,11.7,,,-1.6016609750738027,1.8458950437632222
0.0,0.0,0.0,0.0105,0.0671,0.06,0.0146,0.007,0.0141,0.0289,0.0367,0.0473,0.0536,0.0559,0.0427,0.0258,0.015,0.0124,0.0116,0.0186,0.0295,0.0837,0.3524,1.4431,3.2863,4.4063,4.0046,3.2705,3.0203,3.4019,4.2034,4.7503,4.0653,2.0725,0.4741,0.0612,39.4472,1.007,11.09,0.075,0.9986,0.09,-5.0,2021.0,7.0,9.0,9.0,49.0,45.0,7/9/2021,9:49:45 AM,7/09/2021 9:49:45,6.554,139.41,39.4475,47.0,2375.0,2709.0,3193.0,0.0,23228.0,6084.0,0.0,0.852,6.407,9:49:45 AM,51.27720142,2.61412683,0.2,DGPS      ,,,,,,,,,,,,,,,,2021-07-09 09:49:45,3.0599999999999916,3.260010709567557,,3.170010709567557,-0.09,66.04317890108703,134.86181194655478,121.50703555647299,2.4402097522082564,258.0381475516576,191.99496865057054,3.907112768422636,1.2870051623228713,2.888789267479879,0.1376,27.544600000000003,11.423399999999999,0.3416,0.6401568850262219,10.394938946312424,139.65690755101943,230.0,85.2,2.63,11.7,,,-1.615522902711152,1.8482130061498836
0.0,0.0,0.0,0.0115,0.0694,0.0609,0.0149,0.0072,0.0139,0.0275,0.0336,0.0429,0.0496,0.0535,0.0428,0.0273,0.0165,0.0139,0.0132,0.021,0.033,0.0913,0.3722,1.4764,3.3007,4.3815,3.94,3.1894,2.9565,3.3718,4.2099,4.7558,4.0086,1.9785,0.4382,0.0561,39.0795,1.009,11.09,0.075,0.9986,0.1,-5.0,2021.0,7.0,9.0,9.0,49.0,46.0,7/9/2021,9:49:46 AM,7/09/2021 9:49:46,6.554,138.79,39.0794,47.0,2372.0,2716.0,3205.0,0.0,23230.0,6074.0,0.0,0.854,6.326,9:49:46 AM,51.2772028,2.61412817,0.4,DGPS      ,,,,,,,,,,,,,,,,2021-07-09 09:49:46,2.9599999999999973,3.2583002781509185,,3.1583002781509184,-0.1,65.69548928644525,134.56095154841168,121.28252934641289,2.445446467921892,256.75189791673637,191.05640863029112,3.908211974755947,1.290097883686573,2.894848331931151,0.1418,27.3708,11.2372,0.3297,0.6394710969167655,10.438909291009706,139.03499183099441,230.0,85.2,2.63,11.7,,,-1.6226702211497084,1.849455828404032
0.0,0.0,0.0,0.0111,0.0672,0.0617,0.0158,0.0077,0.0147,0.0284,0.035,0.0444,0.051,0.055,0.0442,0.0287,0.0178,0.0155,0.015,0.0236,0.0368,0.0986,0.3843,1.4748,3.2622,4.3537,3.9564,3.2189,2.9797,3.383,4.2269,4.8134,4.1217,2.081,0.4749,0.0632,39.4663,1.0063,11.1,0.075,0.9992,0.11,-5.0,2021.0,7.0,9.0,9.0,49.0,47.0,7/9/2021,9:49:47 AM,7/09/2021 9:49:47,6.554,139.54,39.4662,47.0,2359.0,2718.0,3222.0,0.0,23231.0,6079.0,0.0,0.851,6.458,9:49:47 AM,51.27720502,2.6141295,0.6,DGPS      ,,,,,,,,,,,,,,,,2021-07-09 09:49:47,2.8099999999999916,3.256551581093456,,3.146551581093456,-0.11,65.75007016284867,135.72153803740426,122.32371374734225,2.4511277660695345,258.3380938408741,192.58802367802542,3.9290922914762922,1.2934456872527957,2.8947771073836317,0.13999999999999999,27.4294,11.5542,0.3427,0.6387295742518998,10.305166279447311,139.7885797394495,230.0,85.2,2.63,11.7,,,-1.6167887751655348,1.854500560283449
0.0,0.0,0.0,0.0087,0.0632,0.0656,0.017,0.0077,0.0147,0.0283,0.0335,0.0423,0.0495,0.0544,0.043,0.0263,0.0149,0.0123,0.0115,0.0184,0.0293,0.085,0.368,1.5234,3.4154,4.4832,4.0072,3.2403,2.9903,3.39,4.2155,4.7559,4.0053,1.9787,0.4373,0.0549,39.49100000000001,1.007,11.1,0.075,0.998,0.09,-5.0,2021.0,7.0,9.0,9.0,49.0,48.0,7/9/2021,9:49:48 AM,7/09/2021 9:49:48,6.554,138.24,39.4909,47.0,2363.0,2712.0,3202.0,0.0,23228.0,6089.0,0.0,0.852,6.384,9:49:48 AM,51.27720772,2.614131,0.6,DGPS      ,,,,,,,,,,,,,,,,2021-07-09 09:49:48,2.859999999999996,3.2547445336345766,,3.1647445336345768,-0.09,65.59212130420902,133.2596171626408,120.9123525442701,2.4478961251572575,256.2663962598026,190.6742749555936,3.906969178070448,1.2915423395256416,2.8989130456353385,0.1375,27.7898,11.232099999999999,0.3316,0.6391510512492884,10.302155561247886,138.4814114056101,230.0,85.2,3.11,11.7,,,-1.5891963884923384,1.8449627084764788
0.0,0.0,0.0,0.0073,0.0597,0.069,0.0182,0.0077,0.0148,0.0286,0.0339,0.0439,0.0519,0.0567,0.043,0.0247,0.0128,0.0098,0.0087,0.0139,0.0219,0.0671,0.3203,1.4683,3.4768,4.6004,4.1152,3.3691,3.1411,3.5353,4.2856,4.7074,3.8881,1.9256,0.4341,0.0555,39.91640000000001,1.0076,11.1,0.075,0.9986,0.09,-5.0,2021.0,7.0,9.0,9.0,49.0,49.0,7/9/2021,9:49:49 AM,7/09/2021 9:49:49,6.554,137.82,39.9164,47.0,2371.0,2715.0,3205.0,0.0,23228.0,6090.0,0.0,0.853,6.38,9:49:49 AM,51.27720995,2.61413267,0.3,DGPS      ,,,,,,,,,,,,,,,,2021-07-09 09:49:49,2.955,3.2528836039452136,,3.1628836039452137,-0.09,66.06655511510678,132.07272355683597,118.4435795655443,2.414421419803719,254.6729765471213,188.6064214320145,3.854794246550442,1.2716775100608677,2.8992323122200445,0.136,28.4335,11.0107,0.3362,0.6435665488092743,10.544406396561858,138.05739853479642,230.0,85.2,3.11,11.7,,,-1.6050666169319387,1.8332210362760664
0.0,0.0,0.0,0.007,0.0603,0.0705,0.0182,0.0076,0.0145,0.0281,0.0349,0.0455,0.0535,0.0577,0.0438,0.0249,0.0125,0.0091,0.0075,0.0115,0.0173,0.0544,0.276,1.3715,3.4577,4.7085,4.2284,3.4407,3.1922,3.5712,4.2932,4.6701,3.8297,1.8989,0.4318,0.0553,40.004,1.0076,11.09,0.075,0.9992,0.09,-5.0,2021.0,7.0,9.0,9.0,49.0,50.0,7/9/2021,9:49:50 AM,7/09/2021 9:49:50,6.554,137.72,40.004,47.0,2368.0,2715.0,3210.0,0.0,23228.0,6093.0,0.0,0.852,6.403,9:49:50 AM,51.27721157,2.61413333,0.4,DGPS      ,,,,,,,,,,,,,,,,2021-07-09 09:49:50,2.894999999999998,3.250981411015586,,3.160981411015586,-0.09,66.61679755892601,131.35606708119667,117.1600462694086,2.3941787028522383,253.97142017778557,187.35462261885957,3.8124231347676942,1.2595308398740621,2.90210059312336,0.13779999999999998,28.6392,10.8858,0.3412,0.6462814911829555,10.797138388734979,137.95183439440228,85.2,230.0,3.11,11.7,,,-1.632152732156456,1.8278442337707042
0.0,0.0,0.0,0.0063,0.0587,0.0712,0.0183,0.0077,0.0152,0.0304,0.0367,0.0463,0.0524,0.0556,0.0421,0.024,0.012,0.0088,0.0074,0.0115,0.0178,0.0562,0.2861,1.4119,3.5089,4.7199,4.1886,3.3816,3.1479,3.5485,4.2955,4.721,3.9134,1.951,0.4369,0.0536,40.14340000000001,1.0076,11.1,0.075,0.9986,0.1,-5.0,2021.0,7.0,9.0,9.0,49.0,51.0,7/9/2021,9:49:51 AM,7/09/2021 9:49:51,6.554,137.95,40.1432,47.0,2365.0,2711.0,3203.0,0.0,23230.0,6098.0,0.0,0.853,6.38,9:49:51 AM,51.27721312,2.6141335,0.5,DGPS      ,,,,,,,,,,,,,,,,2021-07-09 09:49:51,2.8549999999999915,3.2490353601585675,,3.1490353601585674,-0.1,66.42054783816916,131.9176156455537,118.4140003593883,2.4129165992341663,254.82759138317365,188.4070435450045,3.836577680811219,1.2707780506756405,2.903245687231414,0.1362,28.5906,11.0759,0.3407,0.6437671983538092,10.635865534483614,138.18699965054483,230.0,85.2,3.11,11.7,,,-1.6143368948417658,1.8312972948324775
0.0,0.0,0.0,0.0063,0.0588,0.0702,0.0178,0.0075,0.0146,0.0287,0.0359,0.0458,0.0538,0.0583,0.0442,0.0251,0.0126,0.0094,0.0079,0.0121,0.0183,0.0562,0.2808,1.392,3.496,4.7307,4.2183,3.4088,3.1483,3.5153,4.2467,4.6712,3.8965,1.9705,0.4521,0.0567,40.0674,1.0076,11.09,0.075,0.9986,0.1,-5.0,2021.0,7.0,9.0,9.0,49.0,52.0,7/9/2021,9:49:52 AM,7/09/2021 9:49:52,6.554,137.89,40.0675,47.0,2367.0,2716.0,3221.0,0.0,23229.0,6090.0,0.0,0.853,6.38,9:49:52 AM,51.27721575,2.6141335,0.6,DGPS      ,,,,,,,,,,,,,,,,2021-07-09 09:49:52,2.8449999999999935,3.247037738868214,,3.147037738868214,-0.1,66.4805206561628,131.4231113062022,118.40853028617497,2.412630106127301,255.26070941462802,188.78018875846521,3.8396316228453777,1.2706067448277256,2.8989145153231846,0.1353,28.540799999999997,11.047,0.3443,0.6438054200002459,10.571416811354169,138.1261810387874,85.2,230.0,3.11,11.7,,,-1.6012956845265218,1.831728633067992
0.0,0.0,0.0,0.0051,0.0542,0.0714,0.0187,0.0078,0.0157,0.0315,0.0374,0.0462,0.0519,0.0547,0.04,0.0221,0.0109,0.0082,0.007,0.011,0.0171,0.0544,0.2815,1.4165,3.5283,4.7109,4.1319,3.315,3.1039,3.5621,4.3953,4.8561,3.9928,1.9443,0.4182,0.0485,40.270599999999995,1.0056,11.1,0.075,0.998,0.1,-5.0,2021.0,7.0,9.0,9.0,49.0,53.0,7/9/2021,9:49:53 AM,7/09/2021 9:49:53,6.554,138.58,40.2707,47.0,2370.0,2718.0,3213.0,0.0,23230.0,6105.0,0.0,0.851,6.438,9:49:53 AM,51.27721858,2.61413467,0.6,DGPS      ,,,,,,,,,,,,,,,,2021-07-09 09:49:53,2.8559999999999914,3.2449871782869297,,3.1449871782869296,-0.1,66.47163711239354,133.4299097743799,119.15780947573359,2.42010358955604,254.7039254310142,188.23228831862065,3.831768503013521,1.2750688016074192,2.9044546909960305,0.1307,28.5431,11.2599,0.3369,0.6428105887334461,10.545997887926289,138.8119384441764,230.0,85.2,3.11,11.7,,,-1.6069311799471804,1.827595693268589
0.0,0.0,0.0,0.0053,0.0552,0.0706,0.0178,0.0073,0.0148,0.0301,0.0358,0.0456,0.0527,0.0562,0.0412,0.0226,0.011,0.0081,0.0069,0.0108,0.0166,0.0528,0.2751,1.4022,3.5338,4.743,4.1477,3.2913,3.0315,3.4349,4.2495,4.7891,4.0292,1.9905,0.4315,0.05,39.960699999999996,1.0083,11.09,0.075,0.998,0.11,-5.0,2021.0,7.0,9.0,9.0,49.0,54.0,7/9/2021,9:49:54 AM,7/09/2021 9:49:54,6.554,138.51,39.9606,47.0,2371.0,2714.0,3197.0,0.0,23231.0,6112.0,0.0,0.854,6.329,9:49:54 AM,51.27722058,2.61413633,0.3,DGPS      ,,,,,,,,,,,,,,,,2021-07-09 09:49:54,2.8559999999999914,3.2428860739256247,,3.132886073925625,-0.11,66.44322699845151,132.65203942578697,120.28583021487243,2.43793295807314,255.862839978318,189.41961297986649,3.850849086307638,1.2856584531175628,2.8984862801568267,0.1311,28.2042,11.2903,0.3351,0.6404557376470464,10.412411671146272,138.7455672700618,230.0,85.2,3.11,11.7,,,-1.581967080006492,1.831505645470195
0.0,0.0,0.0,0.0058,0.0593,0.0708,0.0169,0.0069,0.0142,0.0294,0.0361,0.0463,0.0532,0.056,0.0418,0.0239,0.0123,0.0094,0.008,0.0122,0.0185,0.0571,0.2861,1.4056,3.47,4.6676,4.1664,3.3904,3.1769,3.5973,4.3368,4.6834,3.7706,1.7974,0.3783,0.0433,39.74820000000001,1.0076,11.1,0.075,0.998,0.11,-5.0,2021.0,7.0,9.0,9.0,49.0,55.0,7/9/2021,9:49:55 AM,7/09/2021 9:49:55,6.554,137.18,39.7481,47.0,2363.0,2711.0,3211.0,0.0,23231.0,6123.0,0.0,0.853,6.356,9:49:55 AM,51.27722223,2.61413683,0.4,DGPS      ,,,,,,,,,,,,,,,,2021-07-09 09:49:55,2.8659999999999966,3.2407373300565916,,3.1307373300565917,-0.11,66.37798999394457,131.21368783335424,116.33424801104515,2.388396576984947,252.05846403906637,185.6804740451218,3.7973199258076478,1.2560424061784876,2.9115038512484084,0.1359,28.6023,10.673,0.33699999999999997,0.6470633173715686,10.807185451290476,137.40411583920326,230.0,85.2,3.11,11.7,,,-1.638734068056126,1.8239248018044045
0.0,0.0,0.0,0.0067,0.0607,0.0706,0.0174,0.0071,0.014,0.0281,0.0348,0.0457,0.0529,0.0564,0.0425,0.0243,0.0125,0.0093,0.0078,0.0119,0.018,0.0556,0.2803,1.404,3.5431,4.746,4.1389,3.3045,3.089,3.5348,4.3367,4.7845,3.9402,1.9231,0.4195,0.0508,40.0717,1.0076,11.1,0.075,0.9986,0.11,-5.0,2021.0,7.0,9.0,9.0,49.0,56.0,7/9/2021,9:49:56 AM,7/09/2021 9:49:56,6.554,138.06,40.0717,47.0,2365.0,2715.0,3216.0,0.0,23231.0,6123.0,0.0,0.853,6.38,9:49:56 AM,51.27722485,2.614137,0.7,DGPS      ,,,,,,,,,,,,,,,,2021-07-09 09:49:56,2.8559999999999914,3.2385431277039882,,3.1285431277039883,-0.11,66.39543138380323,132.5018968667341,118.91030743783037,2.4217929425371363,254.49351265556092,188.09808127175768,3.8329973516467444,1.2760755233541072,2.9003959256296103,0.138,28.4799,11.1181,0.3357,0.6425863492024393,10.63056981568461,138.29026177046555,230.0,85.2,3.11,11.7,,,-1.6154091993203719,1.8309360288694179
0.0,0.0,0.0,0.0077,0.0626,0.0693,0.0173,0.0072,0.0141,0.0285,0.0363,0.0485,0.0557,0.0576,0.0417,0.0229,0.0114,0.0083,0.007,0.0108,0.0165,0.0522,0.2684,1.3691,3.5436,4.8389,4.2365,3.344,3.0811,3.482,4.2448,4.7241,4.0292,2.1003,0.4994,0.0658,40.402800000000006,1.0076,11.1,0.075,0.998,0.1,-5.0,2021.0,7.0,9.0,9.0,49.0,57.0,7/9/2021,9:49:57 AM,7/09/2021 9:49:57,6.554,138.67,40.4029,47.0,2369.0,2717.0,3210.0,0.0,23230.0,6115.0,0.0,0.853,6.356,9:49:57 AM,51.27722778,2.61413833,0.6,DGPS      ,,,,,,,,,,,,,,,,2021-07-09 09:49:57,2.8169999999999935,3.236302011704428,,3.136302011704428,-0.1,66.64478795560315,132.4164776572048,120.42227531429003,2.4375437603402177,257.49285121196976,190.84806325636663,3.8636607469364916,1.2854281192762445,2.8854477914016803,0.1396,28.5032,11.418800000000001,0.3412,0.6405068657490546,10.527581109919161,138.92341576759486,85.2,230.0,3.11,11.7,,,-1.5940424007060117,1.8379854933499162
0.0,0.0,0.002,0.0194,0.0767,0.0659,0.0197,0.0092,0.0146,0.0244,0.0319,0.0437,0.0523,0.0537,0.0389,0.022,0.0116,0.0089,0.0083,0.0131,0.0206,0.0637,0.3078,1.4654,3.6842,4.8745,4.1692,3.2504,2.9837,3.3731,4.159,4.788,4.3796,2.5927,0.7501,0.1302,41.508500000000005,1.007,11.1,0.075,0.998,0.1,-5.0,2021.0,7.0,9.0,9.0,49.0,58.0,7/9/2021,9:49:58 AM,7/09/2021 9:49:58,6.554,141.0,41.5088,47.0,2396.0,2712.0,3220.0,0.0,23229.0,5988.0,0.0,0.852,6.384,9:49:58 AM,51.27722997,2.61413917,0.4,DGPS      ,,,,,,,,,,,,,,,,2021-07-09 09:49:58,2.8169999999999935,3.234010191070842,,3.1340101910708418,-0.1,66.27913407731243,135.6348054147366,127.21936084297307,2.5216185605666004,265.8532924480151,199.57415837070266,4.011115959027255,1.334350059013384,2.8462615026384497,0.164,28.3819,12.6406,0.322,0.6297385846925047,10.38351055414308,141.29547822793162,85.2,230.0,2.63,11.7,,,-1.5768479076238169,1.8716815984770752
0.0,0.0,0.001,0.014,0.0739,0.0721,0.0204,0.0086,0.014,0.0241,0.0316,0.0442,0.0552,0.0616,0.0486,0.0288,0.015,0.0108,0.0089,0.013,0.0187,0.0558,0.2679,1.3284,3.5221,4.865,4.242,3.3269,3.0615,3.4431,4.2155,4.8261,4.3416,2.4758,0.6715,0.1064,41.3141,1.0083,11.1,0.075,0.998,0.09,-5.0,2021.0,7.0,9.0,9.0,49.0,59.0,7/9/2021,9:49:59 AM,7/09/2021 9:49:59,6.554,141.01,41.3145,47.0,2473.0,2705.0,3289.0,0.0,23228.0,5706.0,0.0,0.854,6.329,9:49:59 AM,51.27723238,2.61413967,0.6,DGPS      ,,,,,,,,,,,,,,,,2021-07-09 09:49:59,2.8369999999999966,3.2316681799017366,,3.1416681799017367,-0.09,66.9542536746931,135.77646228434924,125.0656233363067,2.4817171700378506,263.7027734521076,196.74851977741446,3.9385514583337082,1.3113387074771325,2.8698538398038145,0.16099999999999998,28.3796,12.4214,0.3521,0.6347809095698649,10.606448845949396,141.29778261227233,85.2,230.0,2.63,11.7,,,-1.6279943903618308,1.8634141283264127
0.0,0.0,0.0,0.0064,0.0594,0.0738,0.0191,0.0078,0.0152,0.0303,0.0379,0.049,0.0558,0.0588,0.0443,0.0254,0.0127,0.009,0.0073,0.0109,0.0161,0.0498,0.2542,1.3209,3.495,4.8028,4.1848,3.303,3.078,3.503,4.2931,4.8018,4.0813,2.0946,0.4805,0.0603,40.3423,1.009,11.1,0.075,0.9986,0.1,-5.0,2021.0,7.0,9.0,9.0,50.0,0.0,7/9/2021,9:50:00 AM,7/09/2021 9:50:00,6.554,139.2,40.3422,47.0,2525.0,2728.0,3340.0,0.0,23229.0,5542.0,0.0,0.854,6.326,9:50:00 AM,51.27723522,2.6141405,0.6,DGPS      ,,,,,,,,,,,,,,,,2021-07-09 09:50:00,2.8269999999999915,3.229279482551628,,3.129279482551628,-0.1,66.85949262735207,133.8094048068233,120.74478688719147,2.4356967951631106,257.4250254678724,190.56553284052032,3.8502389915319277,1.284334552234379,2.9033306021905854,0.1396,28.3279,11.5185,0.3563,0.6407496647913835,10.625777704503198,139.4427305761821,85.2,230.0,3.11,11.7,,,-1.631183670288319,1.8404971967246693
0.0,0.0,0.0018,0.0191,0.081,0.0705,0.0196,0.0081,0.0127,0.0216,0.0287,0.0425,0.0553,0.0633,0.0509,0.0304,0.0158,0.0112,0.0093,0.0136,0.0196,0.0588,0.2841,1.3915,3.6074,4.8521,4.1493,3.2254,2.985,3.4136,4.2664,4.9808,4.6265,2.769,0.8075,0.1407,42.1331,1.0063,11.1,0.075,0.9986,0.1,-5.0,2021.0,7.0,9.0,9.0,50.0,1.0,7/9/2021,9:50:01 AM,7/09/2021 9:50:01,6.554,142.97,42.1333,47.0,2618.0,2746.0,3358.0,0.0,23230.0,5178.0,0.0,0.851,6.434,9:50:01 AM,51.27723797,2.61414067,0.6,DGPS      ,,,,,,,,,,,,,,,,2021-07-09 09:50:01,2.7829999999999973,3.2268430233214977,,3.1268430233214977,-0.1,66.77877493697586,139.5278325423731,129.3824942652484,2.5308322715841793,268.02841296605715,201.24963802908127,4.0136766992059325,1.3396118974240738,2.8426026729595857,0.1724,28.287300000000002,13.3245,0.3489,0.6285912309319047,10.43254287042214,143.27795953428136,230.0,85.2,2.63,11.7,,,-1.6168437201495245,1.879324528481361
0.0,0.0,0.0,0.0036,0.0525,0.0756,0.0175,0.0067,0.0146,0.0321,0.0403,0.0503,0.0568,0.0587,0.0432,0.0239,0.0114,0.0081,0.0064,0.0095,0.0141,0.0451,0.2443,1.3286,3.5135,4.7801,4.1216,3.245,3.0626,3.5502,4.3638,4.7789,3.8794,1.8363,0.3709,0.0387,39.68429999999999,1.0076,11.1,0.075,0.9986,0.1,-5.0,2021.0,7.0,9.0,9.0,50.0,2.0,7/9/2021,9:50:02 AM,7/09/2021 9:50:02,6.554,137.85,39.6845,47.0,2697.0,2752.0,3350.0,0.0,23229.0,4928.0,0.0,0.853,6.38,9:50:02 AM,51.27724058,2.61414117,0.7,DGPS      ,,,,,,,,,,,,,,,,2021-07-09 09:50:02,2.7829999999999973,3.2243544674663145,,3.1243544674663144,-0.1,66.68703522910951,132.59585620873546,118.04469414734687,2.410476745981251,252.99510884723873,186.3080736181292,3.7937675288465065,1.2693185120327106,2.922210586609682,0.13169999999999998,28.2929,10.9042,0.3555,0.6440929223494392,10.699632812153329,138.07191434655817,85.2,230.0,3.11,11.7,,,-1.6430472883542957,1.8276737567075563
0.0,0.0,0.0,0.008,0.0699,0.0753,0.0171,0.0065,0.0128,0.0259,0.0333,0.0464,0.0565,0.0621,0.0475,0.0266,0.013,0.0091,0.0072,0.0107,0.0157,0.0497,0.2631,1.3915,3.6332,4.8609,4.1402,3.2417,3.0498,3.5412,4.3967,4.9254,4.1628,2.1098,0.4777,0.0593,40.846599999999995,0.9994,11.09,0.075,0.998,0.1,-5.0,2021.0,7.0,9.0,9.0,50.0,3.0,7/9/2021,9:50:03 AM,7/09/2021 9:50:03,6.554,139.15,40.847,46.0,2706.0,2741.0,3329.0,0.0,23229.0,5160.0,0.0,0.846,6.683,9:50:03 AM,51.27724305,2.6141425,0.5,DGPS      ,,,,,,,,,,,,,,,,2021-07-09 09:50:03,2.8129999999999913,3.2218147127050707,,3.1218147127050706,-0.1,66.53384724164519,134.51218844232895,121.53978565699164,2.4525256311499892,257.30744175967396,190.77359451802877,3.867316447599303,1.2942682140142407,2.8900895951341616,0.1532,28.6107,11.735,0.3477,0.6385475200833158,10.68317352405099,139.39107925885764,230.0,85.2,3.11,11.7,,,-1.6404455618687401,1.8446658301524246
0.0,0.0,0.0038,0.0264,0.0816,0.0651,0.0211,0.0102,0.015,0.0234,0.0298,0.0417,0.0507,0.0541,0.0417,0.025,0.0138,0.0105,0.0094,0.0145,0.022,0.0658,0.3075,1.4373,3.6461,4.8742,4.1929,3.2845,3.0563,3.483,4.2701,4.8525,4.4125,2.6601,0.8167,0.1586,42.0779,1.0056,11.08,0.075,0.998,0.09,-5.0,2021.0,7.0,9.0,9.0,50.0,4.0,7/9/2021,9:50:04 AM,7/09/2021 9:50:04,6.554,141.75,42.078,47.0,2722.0,2770.0,3371.0,0.0,23228.0,4728.0,0.0,0.851,6.438,9:50:04 AM,51.27724578,2.614143,0.7,DGPS      ,,,,,,,,,,,,,,,,2021-07-09 09:50:04,2.7929999999999953,3.2192279438617803,,3.1292279438617805,-0.09,66.5160791036224,137.15972142040007,127.31946161529973,2.513322094227624,266.99735245329884,200.48127334967643,4.01402722546763,1.3295955713251737,2.8420203955278187,0.1769,28.6741,12.9004,0.3265,0.6307771106505932,10.679080747702132,142.04930914878068,85.2,230.0,2.63,11.7,,,-1.6283044117783305,1.8785947068433901
0.0,0.0,0.0028,0.0246,0.0887,0.0688,0.0187,0.008,0.0125,0.0212,0.0294,0.0439,0.0563,0.0624,0.0487,0.0288,0.0153,0.0111,0.0097,0.0147,0.022,0.0648,0.2972,1.3912,3.5906,4.8627,4.1674,3.2368,3.0024,3.4292,4.2561,4.9279,4.4922,2.6361,0.7621,0.1347,41.839,1.0042,11.1,0.075,0.9974,0.1,-5.0,2021.0,7.0,9.0,9.0,50.0,5.0,7/9/2021,9:50:05 AM,7/09/2021 9:50:05,6.554,141.81,41.8389,46.0,2715.0,2739.0,3360.0,0.0,23229.0,4558.0,0.0,0.851,6.469,9:50:05 AM,51.27724928,2.61414317,0.8,DGPS      ,,,,,,,,,,,,,,,,2021-07-09 09:50:05,2.8489999999999966,3.216598631331672,,3.116598631331672,-0.1,66.61928400029183,137.88515914975378,127.7505430755112,2.5165859640302584,266.30278829380103,199.6835042935092,3.997382924329155,1.3314678796794115,2.8473993822242103,0.1849,28.3559,12.953000000000001,0.3452,0.6303679368026079,10.758988044160798,142.10420941973658,230.0,85.2,2.63,11.7,,,-1.666802595135671,1.8836541429383302
0.0,0.0,0.0,0.0034,0.0543,0.0832,0.0188,0.0066,0.0145,0.0324,0.0402,0.052,0.0594,0.0627,0.0463,0.0262,0.0129,0.0094,0.0076,0.0115,0.017,0.0522,0.2632,1.3537,3.4966,4.7335,4.0748,3.2293,3.0977,3.6217,4.4512,4.8601,3.9077,1.8195,0.3579,0.0364,39.9139,1.0015,11.09,0.075,0.998,0.09,-5.0,2021.0,7.0,9.0,9.0,50.0,6.0,7/9/2021,9:50:06 AM,7/09/2021 9:50:06,6.554,137.82,39.914,47.0,2706.0,2722.0,3351.0,0.0,23228.0,4673.0,0.0,0.848,6.601,9:50:06 AM,51.27725215,2.61414317,0.5,DGPS      ,,,,,,,,,,,,,,,,2021-07-09 09:50:06,2.898999999999994,3.2139370142725365,,3.1239370142725367,-0.09,66.52185865554426,133.52596284565618,117.97451528483792,2.4080775345568135,252.52401424823307,186.0021555926888,3.7961058117125606,1.267881844306833,2.935779234993252,0.1409,28.4194,10.9816,0.372,0.6444137032131725,10.842067053520108,138.0361315096957,230.0,85.2,3.11,11.7,,,-1.692413225602182,1.8357024289405255
0.0,0.0,0.0,0.0021,0.0415,0.0731,0.0184,0.0077,0.0182,0.0419,0.0499,0.057,0.0607,0.0617,0.0462,0.0268,0.0133,0.0096,0.0077,0.0114,0.0168,0.0507,0.2543,1.3141,3.4213,4.6791,4.0738,3.2637,3.1623,3.7294,4.6041,4.9618,3.8294,1.6686,0.3013,0.0279,39.9058,0.9988,11.09,0.075,0.9986,0.1,-5.0,2021.0,7.0,9.0,9.0,50.0,7.0,7/9/2021,9:50:07 AM,7/09/2021 9:50:07,6.554,137.8,39.9058,47.0,2708.0,2715.0,3391.0,0.0,23230.0,4793.0,0.0,0.845,6.734,9:50:07 AM,51.27725447,2.614143,0.6,DGPS      ,,,,,,,,,,,,,,,,2021-07-09 09:50:07,2.8489999999999966,3.2112509185537426,,3.1112509185537425,-0.1,66.78454916609971,134.15099293856397,116.06409936517689,2.377135459131734,249.7051757321754,182.9206265660757,3.7389662556699186,1.2492241164269138,2.9610243803082934,0.1167,28.598300000000002,10.789,0.4018,0.6485941613384958,10.730406424948077,138.00703412910832,230.0,85.2,3.11,11.7,,,-1.6957527440917066,1.8226892611583578
0.0,0.0,0.0,0.0018,0.0391,0.0761,0.0194,0.0075,0.0172,0.0389,0.0471,0.0553,0.0604,0.0642,0.0498,0.0299,0.0152,0.0112,0.0089,0.013,0.0188,0.0547,0.2585,1.2772,3.3109,4.6539,4.1337,3.2981,3.1334,3.6188,4.4067,4.758,3.7332,1.6637,0.3052,0.0281,39.207899999999995,1.007,11.09,0.075,0.998,0.09,-5.0,2021.0,7.0,9.0,9.0,50.0,8.0,7/9/2021,9:50:08 AM,7/09/2021 9:50:08,6.554,137.14,39.2076,46.0,2717.0,2715.0,3373.0,0.0,23228.0,4865.0,0.0,0.852,6.384,9:50:08 AM,51.27725772,2.614143,0.9,DGPS      ,,,,,,,,,,,,,,,,2021-07-09 09:50:08,2.8089999999999975,3.20853604687665,,3.1185360468766503,-0.09,66.80934161691252,132.3030095053531,115.48386786532822,2.371305561928088,249.9222675299384,183.1129259130259,3.74082817584108,1.2456815777396537,2.9639660222135005,0.117,28.1978,10.4882,0.4049,0.6493909620842003,10.68761250440042,137.34491595704262,230.0,85.2,3.11,11.7,,,-1.6854179590851994,1.8253098396045873
0.0,0.0,0.0,0.0128,0.074,0.0753,0.0207,0.0085,0.0143,0.0257,0.034,0.0478,0.0596,0.0665,0.0535,0.0332,0.018,0.0134,0.0113,0.0166,0.024,0.068,0.2969,1.346,3.436,4.7312,4.1093,3.2213,3.0426,3.5153,4.3416,4.9512,4.4141,2.4776,0.6543,0.1008,41.3154,1.0063,11.09,0.075,0.9986,0.1,-5.0,2021.0,7.0,9.0,9.0,50.0,9.0,7/9/2021,9:50:09 AM,7/09/2021 9:50:09,6.554,141.6,41.3155,47.0,2718.0,2732.0,3375.0,0.0,23229.0,4668.0,0.0,0.851,6.434,9:50:09 AM,51.27726165,2.614143,0.8,DGPS      ,,,,,,,,,,,,,,,,2021-07-09 09:50:09,2.8609999999999967,3.2057889354482754,,3.1057889354482753,-0.1,66.7723224274196,138.49164015155392,125.59655677308292,2.48233438211994,263.6365016822294,196.86417925480978,3.9482901312710497,1.311697466368026,2.8856349870438445,0.16210000000000002,28.1735,12.598,0.38180000000000003,0.6347019881306674,10.551051129044026,141.87692837840657,230.0,85.2,3.11,11.7,,,-1.6657300195459552,1.8725407026908534
0.0,0.0,0.0,0.0,0.0208,0.068,0.0168,0.0063,0.0191,0.0538,0.0608,0.063,0.0602,0.0579,0.0415,0.0239,0.0116,0.0087,0.0068,0.01,0.0145,0.0445,0.2332,1.2779,3.3481,4.6058,3.9999,3.201,3.1255,3.7123,4.5408,4.7181,3.3671,1.2748,0.1827,0.0119,38.18729999999999,1.007,11.09,0.075,0.9986,0.1,-5.0,2021.0,7.0,9.0,9.0,50.0,10.0,7/9/2021,9:50:10 AM,7/09/2021 9:50:10,6.554,135.32,38.1873,47.0,2725.0,2734.0,3367.0,0.0,23230.0,4910.0,0.0,0.852,6.407,9:50:10 AM,51.2772644,2.6141435,0.5,DGPS      ,,,,,,,,,,,,,,,,2021-07-09 09:50:10,2.920999999999999,3.20301852768881,,3.10301852768881,-0.1,66.62194247041397,130.9448093404815,111.38986103779762,2.331408193605636,242.22957824889562,175.60763577848167,3.6358828528073457,1.2212016202256852,2.9705740707224173,0.0888,28.128999999999998,9.5546,0.4149,0.6549239021779154,10.628995122001838,135.50116740983117,230.0,85.2,3.11,8.39,,,-1.6908686348508613,1.8023237781268795
0.0,0.0,0.0,0.01,0.0707,0.0778,0.0201,0.0077,0.0137,0.0257,0.0326,0.0453,0.0552,0.0614,0.0497,0.0314,0.0173,0.0132,0.0114,0.0166,0.024,0.0684,0.3071,1.4227,3.5513,4.7305,4.0589,3.2143,3.066,3.5451,4.3425,4.8651,4.2256,2.2806,0.569,0.0812,40.91210000000001,1.0029,11.1,0.075,0.9986,0.09,-5.0,2021.0,7.0,9.0,9.0,50.0,11.0,7/9/2021,9:50:11 AM,7/09/2021 9:50:11,6.554,139.92,40.9121,47.0,2706.0,2747.0,3368.0,0.0,23228.0,5055.0,0.0,0.849,6.57,9:50:11 AM,51.2772667,2.61414367,0.6,DGPS      ,,,,,,,,,,,,,,,,2021-07-09 09:50:11,2.890999999999998,3.200234674332149,,3.110234674332149,-0.09,66.26760814340741,135.99938163897374,123.32484277507328,2.4697201380046248,260.448455770802,194.1808476273946,3.9302528500376024,1.3043475687782777,2.8893336539592314,0.15849999999999997,28.372,12.0215,0.3601,0.6363208129873321,10.527700927222886,140.17518968104187,230.0,85.2,3.11,11.7,,,-1.6408955716859068,1.8616112352447765
0.0,0.0,0.0,0.0,0.0059,0.0461,0.0145,0.0058,0.0232,0.0793,0.0754,0.0655,0.0573,0.0557,0.0378,0.0204,0.0085,0.0061,0.0044,0.0066,0.0099,0.033,0.2018,1.2644,3.3845,4.6221,3.9664,3.1676,3.1192,3.7478,4.5779,4.6063,3.007,0.9491,0.1004,0.0042,37.2741,1.0022,11.08,0.075,0.998,0.1,-5.0,2021.0,7.0,9.0,9.0,50.0,12.0,7/9/2021,9:50:12 AM,7/09/2021 9:50:12,6.554,133.29,37.2742,47.0,2715.0,2717.0,3362.0,0.0,23229.0,5051.0,0.0,0.848,6.574,9:50:12 AM,51.27727015,2.6141435,0.9,DGPS      ,,,,,,,,,,,,,,,,2021-07-09 09:50:12,3.3809999999999927,3.197468243127838,,3.097468243127838,-0.1,66.51688755209557,128.50492737574842,107.35704517011284,2.2925007812632234,234.41103094782912,167.89414339573355,3.524082974631668,1.1969222254776413,3.0305349001669843,0.052000000000000005,28.1117,8.667,0.4434,0.660458074144773,10.370275706999285,133.44447433446032,85.2,230.0,6.03,3.11,,,-1.6693189633619687,1.780399930232755
0.0,0.0,0.0,0.0,0.017,0.0613,0.0153,0.006,0.0195,0.0583,0.0656,0.0655,0.0618,0.059,0.0404,0.0218,0.0098,0.007,0.0053,0.0079,0.0117,0.0379,0.2188,1.2855,3.4102,4.648,3.9962,3.1761,3.0931,3.6927,4.5512,4.7452,3.3617,1.2265,0.1633,0.0096,38.1492,1.0042,11.09,0.075,0.998,0.09,-5.0,2021.0,7.0,9.0,9.0,50.0,13.0,7/9/2021,9:50:13 AM,7/09/2021 9:50:13,6.554,135.08,38.1492,47.0,2696.0,2737.0,3361.0,0.0,23228.0,5476.0,0.0,0.85,6.492,9:50:13 AM,51.27727647,2.61414067,0.7,RTK       ,,,,,,,,,,,,,,,,2021-07-09 09:50:13,3.336999999999995,3.1947747979955907,,3.104774797995591,-0.09,66.58384361645079,130.58903495528776,111.36881951183668,2.335206706351546,241.3671528432464,174.7833092267956,3.625010809433238,1.22355025915521,2.975429323093025,0.07830000000000001,28.1416,9.5063,0.423,0.6543910265951028,10.438169931389195,135.25669016132446,230.0,85.2,7.11,3.11,,,-1.6643510530306393,1.7975751752381457
0.0,0.0,0.0015,0.0185,0.0835,0.0712,0.0191,0.0083,0.0138,0.0243,0.033,0.0465,0.0562,0.0597,0.0456,0.0267,0.0142,0.0106,0.0094,0.0145,0.0221,0.065,0.2968,1.3897,3.5744,4.8321,4.1284,3.2202,3.0243,3.4939,4.3606,5.0221,4.5076,2.5612,0.699,0.1144,41.86840000000001,1.0001,11.09,0.075,0.998,0.1,-5.0,2021.0,7.0,9.0,9.0,50.0,14.0,7/9/2021,9:50:14 AM,7/09/2021 9:50:14,6.554,141.9,41.8687,47.0,2661.0,2702.0,3382.0,0.0,23230.0,5167.0,0.0,0.847,6.656,9:50:14 AM,51.27727922,2.61414,0.5,RTK       ,,,,,,,,,,,,,,,,2021-07-09 09:50:14,3.386999999999999,3.1921809675284964,,3.0921809675284964,-0.1,66.6866490085505,138.68661644416986,126.8481086650482,2.5026439641144367,264.6975865734333,198.0109375648828,3.969274067729719,1.3234530622041278,2.8620482457836665,0.17470000000000002,28.442,12.9043,0.3474,0.6321213591265453,10.719105235555707,142.18530198047063,230.0,85.2,2.63,11.7,,,-1.6672158694255739,1.8745382541072402
0.0,0.0,0.0,0.0,0.0306,0.0706,0.0156,0.0059,0.0169,0.0467,0.0567,0.0639,0.0644,0.0626,0.0443,0.0244,0.0115,0.0083,0.0064,0.0096,0.0142,0.0444,0.2371,1.3018,3.4168,4.6511,4.0052,3.1858,3.105,3.7049,4.5768,4.8254,3.5233,1.377,0.2073,0.0147,38.72919999999999,1.0022,11.08,0.075,0.9986,0.1,-5.0,2021.0,7.0,9.0,9.0,50.0,15.0,7/9/2021,9:50:15 AM,7/09/2021 9:50:15,6.554,135.94,38.729,47.0,2656.0,2725.0,3332.0,0.0,23230.0,5404.0,0.0,0.848,6.597,9:50:15 AM,51.27728192,2.61414017,0.7,RTK       ,,,,,,,,,,,,,,,,2021-07-09 09:50:15,3.386999999999999,3.1896886125477666,,3.0896886125477665,-0.1,66.5649493783902,131.92385154519684,113.1455750929131,2.3528821440280323,244.41215287608244,177.84720349769225,3.671784552658715,1.2344290577128105,2.944706528993463,0.1012,28.267400000000002,9.9477,0.4129,0.6519284186185309,10.650587745606389,136.12423309931194,230.0,85.2,3.11,9.9,,,-1.6939186937813355,1.81038728204366
0.0,0.0,0.0,0.0047,0.0531,0.0765,0.0206,0.0082,0.0162,0.0331,0.0413,0.0532,0.0608,0.0642,0.0481,0.028,0.0142,0.0105,0.0088,0.0132,0.0196,0.058,0.272,1.3152,3.3888,4.6806,4.1107,3.2951,3.1705,3.6799,4.4718,4.8404,3.9334,1.9235,0.4229,0.0515,40.188599999999994,1.0063,11.07,0.075,0.9986,0.1,-5.0,2021.0,7.0,9.0,9.0,50.0,16.0,7/9/2021,9:50:16 AM,7/09/2021 9:50:16,6.554,138.7,40.1887,47.0,2609.0,2707.0,3340.0,0.0,23229.0,4785.0,0.0,0.851,6.434,9:50:16 AM,51.27728562,2.61414,0.8,RTK       ,,,,,,,,,,,,,,,,2021-07-09 09:50:16,3.3169999999999917,3.187294891761204,,3.087294891761204,-0.1,66.81403543823025,134.57562484897335,118.1494115850496,2.3986391518182044,254.38292137564005,187.5688859374098,3.807327602758222,1.262216136773005,2.92875783194262,0.1343,28.4947,11.1717,0.38789999999999997,0.6456803071728304,10.761400533210272,138.9344190836111,230.0,85.2,3.11,11.7,,,-1.6862217294191149,1.8380748913936373
0.0,0.0027,0.0119,0.0448,0.0886,0.0604,0.0213,0.0105,0.0137,0.0197,0.0273,0.0417,0.0549,0.062,0.0509,0.0325,0.0188,0.0142,0.0131,0.0197,0.0292,0.0807,0.3302,1.4002,3.5449,4.8265,4.1783,3.2792,3.0545,3.4502,4.2007,4.8652,4.661,3.0765,1.0856,0.2565,42.92810000000001,1.0049,11.09,0.075,0.9986,0.09,-5.0,2021.0,7.0,9.0,9.0,50.0,17.0,7/9/2021,9:50:17 AM,7/09/2021 9:50:17,6.554,144.17,42.9279,47.0,2589.0,2725.0,3345.0,0.0,23228.0,4689.0,0.0,0.85,6.489,9:50:17 AM,51.27728922,2.61413833,0.7,RTK       ,,,,,,,,,,,,,,,,2021-07-09 09:50:17,3.319999999999996,3.1849898645062606,,3.094989864506261,-0.09,66.69440171806983,140.88046549225976,132.51711107988905,2.560087381885555,274.9184878032479,208.22408608517807,4.122062432846788,1.356193053686788,2.8174331937052117,0.2084,28.4216,13.944799999999999,0.3533,0.6249893335389858,10.86412664938297,144.51055340472507,230.0,85.2,2.63,11.7,,,-1.6949403194227337,1.9173652593768045
0.0,0.0,0.0016,0.0171,0.0756,0.0713,0.0216,0.0096,0.0153,0.026,0.034,0.0478,0.0589,0.0654,0.0531,0.0333,0.0183,0.0136,0.0117,0.0171,0.0247,0.069,0.2988,1.3517,3.4641,4.7496,4.1317,3.2651,3.0789,3.5294,4.3261,4.9319,4.4738,2.6288,0.7546,0.1308,41.80029999999999,1.0035,11.07,0.075,0.998,0.1,-5.0,2021.0,7.0,9.0,9.0,50.0,18.0,7/9/2021,9:50:18 AM,7/09/2021 9:50:18,6.554,142.3,41.8002,47.0,2577.0,2653.0,3328.0,0.0,23229.0,4394.0,0.0,0.85,6.52,9:50:18 AM,51.27729238,2.61413783,0.7,RTK       ,,,,,,,,,,,,,,,,2021-07-09 09:50:18,3.4099999999999993,3.182773730875413,,3.082773730875413,-0.1,66.83057656795798,139.08114316128837,126.89953914735274,2.4945865374057976,266.124346623275,199.29377005531705,3.9820746773396647,1.3188007174203782,2.8746663784329147,0.1656,28.3315,12.9199,0.38330000000000003,0.6331414009856986,10.534948628467536,142.5918903544459,230.0,85.2,2.63,11.7,,,-1.6588992805373288,1.8798219965171368
0.0,0.0,0.0,0.0,0.0022,0.0318,0.0132,0.0058,0.0263,0.0985,0.0879,0.0695,0.0564,0.0533,0.0351,0.0189,0.0077,0.0055,0.0038,0.0057,0.0084,0.0289,0.1873,1.2341,3.3287,4.5683,3.9167,3.1093,3.0666,3.7321,4.6266,4.6876,3.0218,0.9031,0.0846,0.0029,37.0286,1.0022,11.07,0.075,0.9986,0.09,-5.0,2021.0,7.0,9.0,9.0,50.0,19.0,7/9/2021,9:50:19 AM,7/09/2021 9:50:19,6.554,133.69,37.0287,47.0,2557.0,2651.0,3323.0,0.0,23228.0,4645.0,0.0,0.848,6.597,9:50:19 AM,51.27729558,2.61413883,0.8,RTK       ,,,,,,,,,,,,,,,,2021-07-09 09:50:19,3.4299999999999953,3.1806574629666073,,3.0906574629666075,-0.09,66.66527113541206,129.60622075629362,107.80986176610085,2.29413533817747,234.0736962429028,167.40842510749076,3.511178943042875,1.1979505029309445,3.0446748047100396,0.034,27.822,8.7,0.4726,0.6602227461202032,10.196864824567497,133.83788053581608,230.0,85.2,6.03,3.11,,,-1.6782066894616166,1.7811512165188612
